_id,prolificID,studyID,sessionID,gameID,type,iterationName,batch_num,category,catch_trial,img_id,trialNum,eventType,rt,trial_index,time_elapsed,failed_catches,num_failed,lazy_responder,repeat_offender,ratings,enumerated_ratings,tooDissimilar
5f979708c8fc842033c98c3e,5d87df4202971700016068c8,5f73aa04e06cde127e261a0d,5f9795799e5cb2161ca6c8a5,8201-4168394d-7d3d-4561-99e3-e831f1c1e4a4,survey-likert,livetest1,5,fish,False,https://photodraw32.s3.amazonaws.com/n01447331_2001_fish_09.png,9,rating-task,15867.359999916516,10,392849,False,0,False,False,Very,1,False
5f9796a2c8fc842033c98b67,5865dd647fbbcd00013973b8,5f73aa04e06cde127e261a0d,5f979566d31364162a6b6e63,5310-b022358f-f58b-4db9-9bee-25cbc1e6e836,survey-likert,livetest1,5,fish,False,https://photodraw32.s3.amazonaws.com/n01447331_2001_fish_09.png,53,rating-task,3508.0200000001932,54,301006,False,1,False,False,Very,1,False
5f9798e1c8fc842033c98e4d,5e793ab51aff8103623757be,5f73aa04e06cde127e261a0d,5f9795053dc52216397c6536,7745-cbd298c7-5a60-4d4b-96a3-f181f7b1683f,survey-likert,livetest1,5,fish,False,https://photodraw32.s3.amazonaws.com/n01447331_2001_fish_09.png,102,rating-task,3110.660000002128,103,906094,False,1,True,False,Very,1,False
5f9798fac8fc842033c98e5a,5ec7bb4467b0da23311bd127,5f73aa04e06cde127e261a0d,5f97955fd3134d16540be7b5,7718-cba673bd-f034-45e3-bcd2-2c899d6cc810,survey-likert,livetest1,5,fish,False,https://photodraw32.s3.amazonaws.com/n01447331_2001_fish_09.png,126,rating-task,16997.199999983422,127,916713,False,1,True,False,Moderately,0,False
5f979613c8fc842033c98a62,5e8bce371e16e90ba6df085d,5f73aa04e06cde127e261a0d,5f97950981778215c5aa665e,3965-3d92d695-56b0-44d2-94f0-4c34d331fefe,survey-likert,livetest1,5,fish,False,https://photodraw32.s3.amazonaws.com/n01447331_2001_fish_09.png,49,rating-task,2947.0199999632314,50,256373,False,0,False,False,Very,1,False
5f9795ffc8fc842033c98a3d,5a7ce044ae9a0b0001a9a058,5f73aa04e06cde127e261a0d,5f9794ef55867c16f807d10c,7422-dee2f412-5970-498b-a940-b870491698ed,survey-likert,livetest1,5,fish,False,https://photodraw32.s3.amazonaws.com/n01447331_2001_fish_09.png,44,rating-task,3173.825000063516,45,222033,False,0,False,False,Very,1,False
5f97976cc8fc842033c98ce7,55848744fdf99b574f55ada0,5f73aa04e06cde127e261a0d,5f97955b864a6416528bc74b,8958-ff3eefe2-7275-44ca-ae14-ef544ba77e6f,survey-likert,livetest1,5,fish,False,https://photodraw32.s3.amazonaws.com/n01447331_2001_fish_09.png,82,rating-task,3760.5300000004936,83,520493,False,1,True,False,Extremely,2,False
5f979537c8fc842033c9895a,5e7975aa24a196537da503c1,5f73aa04e06cde127e261a0d,5f9794c9054d7c163eda0434,5986-c486e599-e047-4397-a0d8-372f2a55e4b5,survey-likert,livetest1,5,fish,False,https://photodraw32.s3.amazonaws.com/n01447331_2001_fish_09.png,12,rating-task,3476.380000007339,13,95688,False,0,False,False,Extremely,2,False
5f979584c8fc842033c9898c,5f2e099917eb9615c9de9102,5f73aa04e06cde127e261a0d,5f9795298e277605c08dc4ed,2858-3293f4f2-2aaa-4b26-b20d-21ce163217ee,survey-likert,livetest1,5,fish,False,https://photodraw32.s3.amazonaws.com/n01447331_2001_fish_09.png,0,rating-task,8338.0,1,76591,False,0,True,False,Moderately,0,False
5f97972bc8fc842033c98c7e,5ba85a9d032d360001b83177,5f73aa04e06cde127e261a0d,5f97956e0bfb3716737da19f,3503-bda5e9f8-6ce2-4372-98c2-4876a2bbd53c,survey-likert,livetest1,5,fish,False,https://photodraw32.s3.amazonaws.com/n01447331_2001_fish_09.png,54,rating-task,4702.685000374913,55,431888,False,2,False,False,Very,1,False
5f8d253cd8c3f934f77b8ed8,5de6fa0b45971068368dd887,5f73a9ebfb8b2f119c0f5054,5f8d238c56536a4ca68aa9ad,9472-fdd661ba-52fe-4ccc-b543-c96f58629607,survey-likert,livetest1,1,ray,False,https://photodraw32.s3.amazonaws.com/n01496331_11015_ray_17.png,92,rating-task,4276.4599999645725,93,428788,False,0,False,False,Somewhat,-1,False
5f9a5110cb9b6476926ee0f2,5e7cd3b170dd7532f7177264,5f985d541531871159c45f03,5f9a4d4afd920a15b7c96e8d,5261-293923e7-9582-4a2c-9921-157209ba0481,survey-likert,livetest1,1,ray,False,https://photodraw32.s3.amazonaws.com/n01496331_11015_ray_17.png,135,rating-task,6045.559999998659,136,957290,False,1,False,False,Somewhat,-1,False
5f8d258cd8c3f934f77b8f7c,5dcc0cb819ca038a0dd058ab,5f73a9ebfb8b2f119c0f5054,5f8d237f04936c4ca21e1b2a,1802-66937a7f-ba7e-42cc-8a79-9c0a7eefa27b,survey-likert,livetest1,1,ray,False,https://photodraw32.s3.amazonaws.com/n01496331_11015_ray_17.png,81,rating-task,3450.0900000002584,82,507332,False,1,False,False,Somewhat,-1,False
5f8d244cd8c3f934f77b8d4d,5ec4db33f264da3c38dfce22,5f73a9ebfb8b2f119c0f5054,5f8d233a30af563963c4d8d8,2327-ce1678b4-ad6d-42c0-a529-49b4998d2ee9,survey-likert,livetest1,1,ray,False,https://photodraw32.s3.amazonaws.com/n01496331_11015_ray_17.png,13,rating-task,28632.034999995085,14,269302,False,1,False,False,Very,1,False
5f8d245bd8c3f934f77b8d5f,5c9e61148766170001efc8a3,5f73a9ebfb8b2f119c0f5054,5f8d233ead39c84c605bffe7,6584-5d586faa-ded5-4824-bd20-c261f876acfe,survey-likert,livetest1,1,ray,False,https://photodraw32.s3.amazonaws.com/n01496331_11015_ray_17.png,18,rating-task,6109.599999996135,19,277425,False,2,False,False,Moderately,0,False
5f9a4e70cb9b6476926edf8c,5bbbf217a83521000173d9df,5f985d541531871159c45f03,5f9a4d274c537216449559c6,4061-824322c3-b6cf-4f11-b938-ccdcdcd792fd,survey-likert,livetest1,1,ray,False,https://photodraw32.s3.amazonaws.com/n01496331_11015_ray_17.png,31,rating-task,8053.75500000082,32,308535,False,2,False,False,Very,1,False
5f8d2565d8c3f934f77b8f2d,5f6b83589ffe6809f2cacb07,5f73a9ebfb8b2f119c0f5054,5f8d238920327d4c5c5008e8,2236-a43b6cc2-1946-4302-9413-d184c96bea26,survey-likert,livetest1,1,ray,False,https://photodraw32.s3.amazonaws.com/n01496331_11015_ray_17.png,65,rating-task,3299.4650000182446,66,468516,False,2,True,False,Moderately,0,False
5f9b118bcb9b6476926ee88b,5dd86baf3c870a812198ce1e,5f9b0c77d54fa92d0e547997,5f9b0d1e0d134c2c3c33c1aa,0046-1daf45a3-d13a-4d15-972b-7133fce194d3,survey-likert,livetest1,1,ray,False,https://photodraw32.s3.amazonaws.com/n01496331_11015_ray_17.png,131,rating-task,6097.4600000772625,132,1125684,False,1,True,False,Extremely,2,False
5f8d29f5d8c3f934f77b9209,545cb6f1fdf99b119d8b18bc,5f73a9ebfb8b2f119c0f5054,5f8d23883d5b494cf477ff3c,0968-28cedc9c-b27e-4159-bbf3-967f0e618092,survey-likert,livetest1,1,ray,False,https://photodraw32.s3.amazonaws.com/n01496331_11015_ray_17.png,77,rating-task,5887.044999995967,78,1617167,False,2,False,False,Somewhat,-1,False
5f8d2539d8c3f934f77b8ed4,5f51e7c33457c443748e637b,5f73a9ebfb8b2f119c0f5054,5f8d2377ff9be44c8559a0e3,8317-06d237f4-365b-4899-905e-ad7f32a82003,survey-likert,livetest1,1,ray,False,https://photodraw32.s3.amazonaws.com/n01496331_11015_ray_17.png,68,rating-task,6965.844999998808,69,425448,False,0,False,False,Not At All,-2,False
5f97b32bc8fc842033c9965e,5e5dcd26d196fd0ebd020397,5f73aac1bc553412199221af,5f97b1d50a505c1815e46c64,6967-adafc700-9398-40a2-a5a4-f5812bfaab84,survey-likert,livetest1,7,ray,False,https://photodraw32.s3.amazonaws.com/n01496331_1104_ray_01.png,41,rating-task,6967.919999999111,42,334987,False,2,False,False,Extremely,2,False
5f97b396c8fc842033c99748,5eb3966158efe7182e31ff92,5f73aac1bc553412199221af,5f97b0d63b654418114ada6d,8809-86c17652-332f-426b-bc71-1f318d6bb400,survey-likert,livetest1,7,ray,False,https://photodraw32.s3.amazonaws.com/n01496331_1104_ray_01.png,75,rating-task,4854.764999938197,76,699083,False,1,False,False,Not At All,-2,False
5f97b467c8fc842033c998c1,5d561653194649001adc083f,5f73aac1bc553412199221af,5f97b1bf2c032d08449b1529,7597-ea02da82-1d80-4013-853a-553de10e0cb2,survey-likert,livetest1,7,ray,False,https://photodraw32.s3.amazonaws.com/n01496331_1104_ray_01.png,135,rating-task,4112.0,136,655817,False,0,False,False,Somewhat,-1,False
5f97b5aac8fc842033c99971,5e3b67fcd61d8738c69aeb0d,5f73aac1bc553412199221af,5f97b14f0788e5174439472b,5240-0572b45d-d442-49d4-83cc-2e6425754f2f,survey-likert,livetest1,7,ray,False,https://photodraw32.s3.amazonaws.com/n01496331_1104_ray_01.png,126,rating-task,5433.069999911822,127,957969,False,0,False,False,Somewhat,-1,False
5f9a74f6cb9b6476926ee5f0,5e6d0c990eef222d60ec8cd7,5f985f3ad2170e114114fd3f,5f9a728200cdf117d14d838a,3909-f384f2d3-12c2-46c8-9a76-f4fdb3d75480,survey-likert,livetest1,7,ray,False,https://photodraw32.s3.amazonaws.com/n01496331_1104_ray_01.png,47,rating-task,7620.640000095591,48,608662,False,0,True,False,Somewhat,-1,False
5f97b3b3c8fc842033c99786,5f73edee7379c903c056edfb,5f73aac1bc553412199221af,5f97b22131cb4717ab8360b5,5535-6ff0103c-31d7-401c-a01a-c482a3147c0f,survey-likert,livetest1,7,ray,False,https://photodraw32.s3.amazonaws.com/n01496331_1104_ray_01.png,91,rating-task,2667.6100000040606,92,395661,False,0,False,False,Moderately,0,False
5f97b364c8fc842033c996db,5f72614089bf93198154a8ff,5f73aac1bc553412199221af,5f97b19f94e3be186643273c,1144-8c7ca652-5630-437e-b5c9-aa42e24c27de,survey-likert,livetest1,7,ray,False,https://photodraw32.s3.amazonaws.com/n01496331_1104_ray_01.png,65,rating-task,4810.0,66,422993,False,0,False,False,Somewhat,-1,False
5f97b357c8fc842033c996bd,5b71d485a539a50001280147,5f73aac1bc553412199221af,5f97b1399f0a251816f12dcf,1545-f451a063-72a9-48bc-81b0-96347e5d5c31,survey-likert,livetest1,7,ray,False,https://photodraw32.s3.amazonaws.com/n01496331_1104_ray_01.png,58,rating-task,4757.085000004736,59,535082,False,0,False,False,Not At All,-2,False
5f9a7484cb9b6476926ee5c6,5a572480acc75b00017a1882,5f985f3ad2170e114114fd3f,5f9a727c8171241740f44d51,6676-668b6a66-f8ba-40a9-9806-e7dee37f8bc4,survey-likert,livetest1,7,ray,False,https://photodraw32.s3.amazonaws.com/n01496331_1104_ray_01.png,87,rating-task,4056.150000076741,88,511036,False,0,True,False,Very,1,False
5f97b2e8c8fc842033c995dc,5e145ce811d879a7799c8e89,5f73aac1bc553412199221af,5f97b10d19e194180257b242,8295-e893e64a-aecc-4e5e-bd5e-5d9e23bd3f2d,survey-likert,livetest1,7,ray,False,https://photodraw32.s3.amazonaws.com/n01496331_1104_ray_01.png,81,rating-task,4172.215000027791,82,460019,False,2,False,False,Very,1,False
5f8d24bed8c3f934f77b8e0e,5dcc0cb819ca038a0dd058ab,5f73a9ebfb8b2f119c0f5054,5f8d237f04936c4ca21e1b2a,1802-66937a7f-ba7e-42cc-8a79-9c0a7eefa27b,survey-likert,livetest1,1,ray,False,https://photodraw32.s3.amazonaws.com/n01496331_11647_ray_19.png,44,rating-task,4666.629999999714,45,300922,False,1,False,False,Somewhat,-1,False
5f8d2584d8c3f934f77b8f6a,5de6fa0b45971068368dd887,5f73a9ebfb8b2f119c0f5054,5f8d238c56536a4ca68aa9ad,9472-fdd661ba-52fe-4ccc-b543-c96f58629607,survey-likert,livetest1,1,ray,False,https://photodraw32.s3.amazonaws.com/n01496331_11647_ray_19.png,114,rating-task,3538.460000010673,115,501501,False,0,False,False,Somewhat,-1,False
5f9a4f9acb9b6476926ee022,5bbbf217a83521000173d9df,5f985d541531871159c45f03,5f9a4d274c537216449559c6,4061-824322c3-b6cf-4f11-b938-ccdcdcd792fd,survey-likert,livetest1,1,ray,False,https://photodraw32.s3.amazonaws.com/n01496331_11647_ray_19.png,83,rating-task,6427.4299999962095,84,606420,False,2,False,False,Somewhat,-1,False
5f8d2582d8c3f934f77b8f66,5f51e7c33457c443748e637b,5f73a9ebfb8b2f119c0f5054,5f8d2377ff9be44c8559a0e3,8317-06d237f4-365b-4899-905e-ad7f32a82003,survey-likert,livetest1,1,ray,False,https://photodraw32.s3.amazonaws.com/n01496331_11647_ray_19.png,86,rating-task,4965.094999992289,87,498693,False,0,False,False,Somewhat,-1,False
5f9b0eaecb9b6476926ee82e,5dd86baf3c870a812198ce1e,5f9b0c77d54fa92d0e547997,5f9b0d1e0d134c2c3c33c1aa,0046-1daf45a3-d13a-4d15-972b-7133fce194d3,survey-likert,livetest1,1,ray,False,https://photodraw32.s3.amazonaws.com/n01496331_11647_ray_19.png,38,rating-task,7922.655000002123,39,392915,False,1,True,False,Extremely,2,False
5f8d2683d8c3f934f77b910b,5f6b83589ffe6809f2cacb07,5f73a9ebfb8b2f119c0f5054,5f8d238920327d4c5c5008e8,2236-a43b6cc2-1946-4302-9413-d184c96bea26,survey-likert,livetest1,1,ray,False,https://photodraw32.s3.amazonaws.com/n01496331_11647_ray_19.png,134,rating-task,3259.250000002794,135,754175,False,2,True,False,Extremely,2,False
5f8d25f5d8c3f934f77b9036,5c9e61148766170001efc8a3,5f73a9ebfb8b2f119c0f5054,5f8d233ead39c84c605bffe7,6584-5d586faa-ded5-4824-bd20-c261f876acfe,survey-likert,livetest1,1,ray,False,https://photodraw32.s3.amazonaws.com/n01496331_11647_ray_19.png,109,rating-task,4149.685000011232,110,687688,False,2,False,False,Moderately,0,False
5f8d2a38d8c3f934f77b9216,545cb6f1fdf99b119d8b18bc,5f73a9ebfb8b2f119c0f5054,5f8d23883d5b494cf477ff3c,0968-28cedc9c-b27e-4159-bbf3-967f0e618092,survey-likert,livetest1,1,ray,False,https://photodraw32.s3.amazonaws.com/n01496331_11647_ray_19.png,88,rating-task,5026.03500000271,89,1684513,False,2,False,False,Very,1,False
5f8d2501d8c3f934f77b8e72,5ec4db33f264da3c38dfce22,5f73a9ebfb8b2f119c0f5054,5f8d233a30af563963c4d8d8,2327-ce1678b4-ad6d-42c0-a529-49b4998d2ee9,survey-likert,livetest1,1,ray,False,https://photodraw32.s3.amazonaws.com/n01496331_11647_ray_19.png,36,rating-task,7927.3900000043795,37,450591,False,1,False,False,Moderately,0,False
5f9a4de5cb9b6476926edf68,5e7cd3b170dd7532f7177264,5f985d541531871159c45f03,5f9a4d4afd920a15b7c96e8d,5261-293923e7-9582-4a2c-9921-157209ba0481,survey-likert,livetest1,1,ray,False,https://photodraw32.s3.amazonaws.com/n01496331_11647_ray_19.png,2,rating-task,11515.769999998156,3,145787,False,1,False,False,Somewhat,-1,False
5f9a55a0cb9b6476926ee1b2,5efc4a86816bde0116bebb3b,5f985e85aa47ac11b7d52ffd,5f9a527d135e38163198880e,6100-72abe12e-0674-4767-9a1e-842bbb461cb9,survey-likert,livetest1,2,ray,False,https://photodraw32.s3.amazonaws.com/n01496331_12211_ray_20.png,44,rating-task,15776.505000074394,45,710319,False,2,False,False,Very,1,False
5f8d3271d8c3f934f77b9339,5baa1f618e137f00016264c9,5f73a9f564ee5911fdac5cea,5f8d316b18ada64db01b44e3,4867-b3cacf4c-4a99-45f5-a60d-1f8c167ff196,survey-likert,livetest1,2,ray,False,https://photodraw32.s3.amazonaws.com/n01496331_12211_ray_20.png,34,rating-task,9455.50500000536,35,256872,False,2,True,False,Very,1,False
5f9a5705cb9b6476926ee22a,5a06f5d038ed430001be74d2,5f985e85aa47ac11b7d52ffd,5f9a52751c037916f6e4e5bc,0984-7a1134b2-9b01-46e3-ae99-c5edf681efcb,survey-likert,livetest1,2,ray,False,https://photodraw32.s3.amazonaws.com/n01496331_12211_ray_20.png,101,rating-task,6171.699999948032,102,1059966,False,0,True,False,Somewhat,-1,False
5f8d32c7d8c3f934f77b93d2,5ebaa4e2baddc6000aec5616,5f73a9f564ee5911fdac5cea,5f8d31768d187d1ba3166480,6632-60e9a010-d083-4034-ab02-cb438cbe2a78,survey-likert,livetest1,2,ray,False,https://photodraw32.s3.amazonaws.com/n01496331_12211_ray_20.png,65,rating-task,3158.7799999979325,66,331836,False,0,False,False,Somewhat,-1,False
5f8d32f9d8c3f934f77b9422,5cbcd05c56524100013b19c0,5f73a9f564ee5911fdac5cea,5f8d31569d47214d94b00c04,0165-27b8d1ba-11f6-4b20-a674-7de566afd61e,survey-likert,livetest1,2,ray,False,https://photodraw32.s3.amazonaws.com/n01496331_12211_ray_20.png,51,rating-task,6101.275000022724,52,377551,False,0,False,False,Very,1,False
5f8d33d0d8c3f934f77b9589,5eb7ace91de6e86e9a6053d2,5f73a9f564ee5911fdac5cea,5f8d315d4c58831b861cd2ec,8890-cfd9209e-45b5-408f-9eed-f8c5f9c8b840,survey-likert,livetest1,2,ray,False,https://photodraw32.s3.amazonaws.com/n01496331_12211_ray_20.png,61,rating-task,3048.6999999993714,62,612791,False,1,True,False,Extremely,2,False
5f8d41aad8c3f934f77b97a7,5efb5648d7ea0e08aa5d1179,5f73a9f564ee5911fdac5cea,5f8d407f2a240a000adb921d,7636-1245bb50-afd4-4f74-86aa-371af258b5b2,survey-likert,livetest1,2,ray,False,https://photodraw32.s3.amazonaws.com/n01496331_12211_ray_20.png,55,rating-task,5086.339999979828,56,283152,False,0,False,False,Moderately,0,False
5f9a554fcb9b6476926ee198,5d43b4140aa3ad0001e2233a,5f985e85aa47ac11b7d52ffd,5f9a5233425559168b60f9b8,9792-633b02e8-1775-4069-8547-f42c629e9a05,survey-likert,livetest1,2,ray,False,https://photodraw32.s3.amazonaws.com/n01496331_12211_ray_20.png,74,rating-task,46030.0,75,722621,False,0,True,False,Moderately,0,False
5f8d3346d8c3f934f77b948f,5f68710379c5f04c830d41ea,5f73a9f564ee5911fdac5cea,5f8d316421cb9c4e472cbbc3,8762-de015f57-0189-48ba-b1d1-171227264ac1,survey-likert,livetest1,2,ray,False,https://photodraw32.s3.amazonaws.com/n01496331_12211_ray_20.png,57,rating-task,15300.259999989066,58,466061,False,2,False,False,Not At All,-2,False
5f8d33b4d8c3f934f77b9551,5e3b89b17afaad3a6ef5f11f,5f73a9f564ee5911fdac5cea,5f8d317e299b290153c1f511,0928-da665bce-f165-4db3-bac0-402206ac4967,survey-likert,livetest1,2,ray,False,https://photodraw32.s3.amazonaws.com/n01496331_12211_ray_20.png,114,rating-task,4798.2999999658205,115,557916,False,2,False,False,Not At All,-2,False
5f976276c8fc842033c97ec8,5f7b241d63e1da06afec1b30,5f73a9fb9df4fe129333e6d3,5f97615655867c12ac8aac8d,1788-04d6ee5f-f884-4e53-9452-8367598c62cc,survey-likert,livetest1,3,ray,False,https://photodraw32.s3.amazonaws.com/n01496331_15906_ray_23.png,37,rating-task,5462.204999988899,38,282700,False,1,True,False,Very,1,False
5f976252c8fc842033c97e97,5c97e7136825d900019b9fb8,5f73a9fb9df4fe129333e6d3,5f97610f7cd03e126ee0558e,4578-01e9cdec-d7ff-4b66-829d-4be0fcf063be,survey-likert,livetest1,3,ray,False,https://photodraw32.s3.amazonaws.com/n01496331_15906_ray_23.png,34,rating-task,4086.0,35,213009,False,1,False,False,Moderately,0,False
5f9765aac8fc842033c9823b,5c0a7febe570940001a2cbe2,5f73a9fb9df4fe129333e6d3,5f97611b8112f611dbcbbb1a,8951-7a917fc3-f496-4465-b816-1299e64071f3,survey-likert,livetest1,3,ray,False,https://photodraw32.s3.amazonaws.com/n01496331_15906_ray_23.png,44,rating-task,4048.9999999990687,45,587105,False,1,True,False,Very,1,False
5f9764cbc8fc842033c981e2,5f5b7d92b4ff9509d17aa5a6,5f73a9fb9df4fe129333e6d3,5f976126bcd533125235b88d,3570-c22700f0-eef6-4c19-be2f-2d656b668be5,survey-likert,livetest1,3,ray,False,https://photodraw32.s3.amazonaws.com/n01496331_15906_ray_23.png,121,rating-task,8443.565000023227,122,635111,False,0,True,False,Somewhat,-1,False
5f976444c8fc842033c9818d,5bf735ba2e42ef00019f6f73,5f73a9fb9df4fe129333e6d3,5f976116e3bab812a1cb2781,6747-293e10a2-33c6-43f7-a60e-6d902034c241,survey-likert,livetest1,3,ray,False,https://photodraw32.s3.amazonaws.com/n01496331_15906_ray_23.png,73,rating-task,11280.414999928325,74,802037,False,3,False,False,Moderately,0,False
5f97618cc8fc842033c97d98,5a2420437413810001521dd6,5f73a9fb9df4fe129333e6d3,5f976118f0dac3120ceb21db,7296-bf3baa1b-9b2b-4d1e-bed2-11ed949f461c,survey-likert,livetest1,3,ray,False,https://photodraw32.s3.amazonaws.com/n01496331_15906_ray_23.png,1,rating-task,16716.73500002362,2,97429,False,0,False,False,Moderately,0,False
5f9a5bbecb9b6476926ee2e4,5e1088684a2ad475d62a5de8,5f985e88def616122233c8bb,5f9a5a1f724e3e16f5400277,3558-d5fed8d6-e5f6-4593-8884-86b1c363b8aa,survey-likert,livetest1,3,ray,False,https://photodraw32.s3.amazonaws.com/n01496331_15906_ray_23.png,74,rating-task,3183.0,75,378920,False,2,False,False,Very,1,False
5f977286c8fc842033c982d8,5e8251f790b06509688a8f90,5f73a9fb9df4fe129333e6d3,5f9761346990711164f5fe29,0388-530ffc75-c1e8-4443-a65b-d179ce913cfe,survey-likert,livetest1,3,ray,False,https://photodraw32.s3.amazonaws.com/n01496331_15906_ray_23.png,14,rating-task,7413.029999995604,15,209442,False,1,False,False,Somewhat,-1,False
5f97636ac8fc842033c9806a,5f0ced4a75cfd41b82bf28d2,5f73a9fb9df4fe129333e6d3,5f9760e8069a2511bfca56ba,7741-0262f78c-2285-48a3-ab00-eff4514a0152,survey-likert,livetest1,3,ray,False,https://photodraw32.s3.amazonaws.com/n01496331_15906_ray_23.png,116,rating-task,3727.950000000419,117,636191,False,0,False,False,Moderately,0,False
5f9775a9c8fc842033c9839c,5c2d3ba4731cd10001b647d7,5f73a9fb9df4fe129333e6d3,5f97711d63ceb303f79f4107,1725-c4f1154e-3494-4c56-b4d8-260edb1317e6,survey-likert,livetest1,3,ray,False,https://photodraw32.s3.amazonaws.com/n01496331_15906_ray_23.png,71,rating-task,2848.1800000881776,72,1160909,False,0,False,False,Extremely,2,False
5f9a5ee2cb9b6476926ee32b,5ee38a6c0bc82d01daa410f8,5f985efdfbd89110b8d71b9a,5f9a5e782613ea16e16a71e5,3808-acb39714-1db9-4e6d-abbe-bff002c558e2,survey-likert,livetest1,4,ray,False,https://photodraw32.s3.amazonaws.com/n01496331_17373_ray_24.png,6,rating-task,3839.0,7,93984,False,0,False,False,Extremely,2,False
5f9787e9c8fc842033c988f7,5ee222b0470fa72a18c1cc02,5f73a9ffb9cb9f12192551a7,5f97842da30548156461aabd,1695-0a496672-4eb0-4869-8217-799b9b2149f6,survey-likert,livetest1,4,ray,False,https://photodraw32.s3.amazonaws.com/n01496331_17373_ray_24.png,72,rating-task,19237.685000058264,73,945527,False,0,True,False,Moderately,0,False
5f978543c8fc842033c9855b,5f1198f77195c80293793402,5f73a9ffb9cb9f12192551a7,5f97838fa3ef981562350835,6262-3e4cb2df-221a-4216-8050-d5d9d817c75d,survey-likert,livetest1,4,ray,False,https://photodraw32.s3.amazonaws.com/n01496331_17373_ray_24.png,55,rating-task,4693.0,56,353426,False,1,True,False,Very,1,False
5f978631c8fc842033c98719,5d55bd344ec7fa000168f311,5f73a9ffb9cb9f12192551a7,5f9783ddce960e15a1b52984,6962-0197ff6c-57a0-414e-9892-c5a21ee97f9c,survey-likert,livetest1,4,ray,False,https://photodraw32.s3.amazonaws.com/n01496331_17373_ray_24.png,66,rating-task,3900.90500000224,67,582379,False,1,False,False,Very,1,False
5f97851bc8fc842033c98513,5edd552a1d16bda58fe55563,5f73a9ffb9cb9f12192551a7,5f9783d1873236150a0adad7,8818-a6187be9-15a9-4a42-84d1-ff98c548f595,survey-likert,livetest1,4,ray,False,https://photodraw32.s3.amazonaws.com/n01496331_17373_ray_24.png,40,rating-task,3996.2300000188407,41,320807,False,0,False,False,Extremely,2,False
5f9785cec8fc842033c98667,5e63dd2fba8c57000c16eb11,5f73a9ffb9cb9f12192551a7,5f9783a15da60415af45c683,7125-4d164f54-f007-49e6-ba98-6ef0c7c1773f,survey-likert,livetest1,4,ray,False,https://photodraw32.s3.amazonaws.com/n01496331_17373_ray_24.png,77,rating-task,2672.825000001467,78,549554,False,0,False,False,Very,1,False
5f9a8239cb9b6476926ee747,5ec3ebf2339052081ebf3178,5f9a78aec4733c18df2d5222,5f9a7eeb0a5b3319a4c68c55,1572-1d7f64e5-ff50-439c-8671-a181462cbc32,survey-likert,livetest1,4,ray,False,https://photodraw32.s3.amazonaws.com/n01496331_17373_ray_24.png,85,rating-task,4384.850000031292,86,838712,False,0,False,False,Extremely,2,False
5f978616c8fc842033c986e2,5ea171c1a8782801263e7540,5f73a9ffb9cb9f12192551a7,5f9783eae48ab015a8d2ae43,3415-d06d6695-bfb4-43f0-b595-24f9ccd1f780,survey-likert,livetest1,4,ray,False,https://photodraw32.s3.amazonaws.com/n01496331_17373_ray_24.png,101,rating-task,3368.7100000097416,102,550776,False,1,False,False,Very,1,False
5f9785dac8fc842033c9867b,5f568eb26157950e3b0a6db6,5f73a9ffb9cb9f12192551a7,5f9783e7a30548156461aabb,3165-f5e9002e-85a0-49ab-9dcd-9769d49592b4,survey-likert,livetest1,4,ray,False,https://photodraw32.s3.amazonaws.com/n01496331_17373_ray_24.png,67,rating-task,12378.370000005816,68,485956,False,1,False,False,Very,1,False
5f9a67d3cb9b6476926ee4a8,5e9b8d6577f86e0a261075a1,5f985efdfbd89110b8d71b9a,5f9a5ea24358ae168b376305,7438-f27695f8-9a23-46ff-a05d-96a5b17212a1,survey-likert,livetest1,4,ray,False,https://photodraw32.s3.amazonaws.com/n01496331_17373_ray_24.png,111,rating-task,35300.335000269115,112,2341816,False,2,True,False,Very,1,False
5f97b27ac8fc842033c9950c,5e3b67fcd61d8738c69aeb0d,5f73aac1bc553412199221af,5f97b14f0788e5174439472b,5240-0572b45d-d442-49d4-83cc-2e6425754f2f,survey-likert,livetest1,7,ray,False,https://photodraw32.s3.amazonaws.com/n01496331_18622_ray_25.png,3,rating-task,13392.69000000786,4,142548,False,0,False,False,Somewhat,-1,False
5f9a7626cb9b6476926ee643,5e6d0c990eef222d60ec8cd7,5f985f3ad2170e114114fd3f,5f9a728200cdf117d14d838a,3909-f384f2d3-12c2-46c8-9a76-f4fdb3d75480,survey-likert,livetest1,7,ray,False,https://photodraw32.s3.amazonaws.com/n01496331_18622_ray_25.png,103,rating-task,8607.4250000529,104,912725,False,0,True,False,Moderately,0,False
5f97b41dc8fc842033c99851,5f73edee7379c903c056edfb,5f73aac1bc553412199221af,5f97b22131cb4717ab8360b5,5535-6ff0103c-31d7-401c-a01a-c482a3147c0f,survey-likert,livetest1,7,ray,False,https://photodraw32.s3.amazonaws.com/n01496331_18622_ray_25.png,122,rating-task,3325.6950000068173,123,502200,False,0,False,False,Moderately,0,False
5f97b311c8fc842033c9962c,5d561653194649001adc083f,5f73aac1bc553412199221af,5f97b1bf2c032d08449b1529,7597-ea02da82-1d80-4013-853a-553de10e0cb2,survey-likert,livetest1,7,ray,False,https://photodraw32.s3.amazonaws.com/n01496331_18622_ray_25.png,54,rating-task,3872.0,55,313746,False,0,False,False,Somewhat,-1,False
5f9a74d0cb9b6476926ee5e3,5a572480acc75b00017a1882,5f985f3ad2170e114114fd3f,5f9a727c8171241740f44d51,6676-668b6a66-f8ba-40a9-9806-e7dee37f8bc4,survey-likert,livetest1,7,ray,False,https://photodraw32.s3.amazonaws.com/n01496331_18622_ray_25.png,104,rating-task,3460.2149999700487,105,587394,False,0,True,False,Moderately,0,False
5f97b2bdc8fc842033c99585,5e145ce811d879a7799c8e89,5f73aac1bc553412199221af,5f97b10d19e194180257b242,8295-e893e64a-aecc-4e5e-bd5e-5d9e23bd3f2d,survey-likert,livetest1,7,ray,False,https://photodraw32.s3.amazonaws.com/n01496331_18622_ray_25.png,73,rating-task,5027.684999979101,74,417168,False,2,False,False,Moderately,0,False
5f97b28bc8fc842033c9952b,5eb3966158efe7182e31ff92,5f73aac1bc553412199221af,5f97b0d63b654418114ada6d,8809-86c17652-332f-426b-bc71-1f318d6bb400,survey-likert,livetest1,7,ray,False,https://photodraw32.s3.amazonaws.com/n01496331_18622_ray_25.png,30,rating-task,5521.420000004582,31,432040,False,1,False,False,Very,1,False
5f97b456c8fc842033c998a8,5f72614089bf93198154a8ff,5f73aac1bc553412199221af,5f97b19f94e3be186643273c,1144-8c7ca652-5630-437e-b5c9-aa42e24c27de,survey-likert,livetest1,7,ray,False,https://photodraw32.s3.amazonaws.com/n01496331_18622_ray_25.png,121,rating-task,5385.0,122,665209,False,0,False,False,Extremely,2,False
5f97b4ebc8fc842033c99928,5e5dcd26d196fd0ebd020397,5f73aac1bc553412199221af,5f97b1d50a505c1815e46c64,6967-adafc700-9398-40a2-a5a4-f5812bfaab84,survey-likert,livetest1,7,ray,False,https://photodraw32.s3.amazonaws.com/n01496331_18622_ray_25.png,116,rating-task,4756.489999999758,117,782519,False,2,False,False,Very,1,False
5f97b42bc8fc842033c99867,5b71d485a539a50001280147,5f73aac1bc553412199221af,5f97b1399f0a251816f12dcf,1545-f451a063-72a9-48bc-81b0-96347e5d5c31,survey-likert,livetest1,7,ray,False,https://photodraw32.s3.amazonaws.com/n01496331_18622_ray_25.png,91,rating-task,3212.9899999999907,92,747287,False,0,False,False,Very,1,False
5f9a5554cb9b6476926ee19b,5efc4a86816bde0116bebb3b,5f985e85aa47ac11b7d52ffd,5f9a527d135e38163198880e,6100-72abe12e-0674-4767-9a1e-842bbb461cb9,survey-likert,livetest1,2,ray,False,https://photodraw32.s3.amazonaws.com/n01496331_20865_ray_26.png,37,rating-task,6601.544999983162,38,634345,False,2,False,False,Extremely,2,False
5f8d3327d8c3f934f77b9466,5f68710379c5f04c830d41ea,5f73a9f564ee5911fdac5cea,5f8d316421cb9c4e472cbbc3,8762-de015f57-0189-48ba-b1d1-171227264ac1,survey-likert,livetest1,2,ray,False,https://photodraw32.s3.amazonaws.com/n01496331_20865_ray_26.png,53,rating-task,11954.784999994445,54,435562,False,2,False,False,Moderately,0,False
5f8d42d3d8c3f934f77b97ec,5efb5648d7ea0e08aa5d1179,5f73a9f564ee5911fdac5cea,5f8d407f2a240a000adb921d,7636-1245bb50-afd4-4f74-86aa-371af258b5b2,survey-likert,livetest1,2,ray,False,https://photodraw32.s3.amazonaws.com/n01496331_20865_ray_26.png,124,rating-task,3270.680000016,125,579851,False,0,False,False,Extremely,2,False
5f8d33ecd8c3f934f77b95b8,5cbcd05c56524100013b19c0,5f73a9f564ee5911fdac5cea,5f8d31569d47214d94b00c04,0165-27b8d1ba-11f6-4b20-a674-7de566afd61e,survey-likert,livetest1,2,ray,False,https://photodraw32.s3.amazonaws.com/n01496331_20865_ray_26.png,109,rating-task,3701.714999973774,110,620439,False,0,False,False,Extremely,2,False
5f9a55b4cb9b6476926ee1b7,5a06f5d038ed430001be74d2,5f985e85aa47ac11b7d52ffd,5f9a52751c037916f6e4e5bc,0984-7a1134b2-9b01-46e3-ae99-c5edf681efcb,survey-likert,livetest1,2,ray,False,https://photodraw32.s3.amazonaws.com/n01496331_20865_ray_26.png,60,rating-task,5048.899999994319,61,722928,False,0,True,False,Extremely,2,False
5f8d33ded8c3f934f77b95a1,5baa1f618e137f00016264c9,5f73a9f564ee5911fdac5cea,5f8d316b18ada64db01b44e3,4867-b3cacf4c-4a99-45f5-a60d-1f8c167ff196,survey-likert,livetest1,2,ray,False,https://photodraw32.s3.amazonaws.com/n01496331_20865_ray_26.png,104,rating-task,4790.265000003274,105,621257,False,2,True,False,Extremely,2,False
5f8d3272d8c3f934f77b933c,5ebaa4e2baddc6000aec5616,5f73a9f564ee5911fdac5cea,5f8d31768d187d1ba3166480,6632-60e9a010-d083-4034-ab02-cb438cbe2a78,survey-likert,livetest1,2,ray,False,https://photodraw32.s3.amazonaws.com/n01496331_20865_ray_26.png,43,rating-task,2774.8849999989034,44,246044,False,0,False,False,Moderately,0,False
5f8d327dd8c3f934f77b934f,5e3b89b17afaad3a6ef5f11f,5f73a9f564ee5911fdac5cea,5f8d317e299b290153c1f511,0928-da665bce-f165-4db3-bac0-402206ac4967,survey-likert,livetest1,2,ray,False,https://photodraw32.s3.amazonaws.com/n01496331_20865_ray_26.png,36,rating-task,4646.6050000162795,37,247244,False,2,False,False,Very,1,False
5f8d3480d8c3f934f77b9633,5eb7ace91de6e86e9a6053d2,5f73a9f564ee5911fdac5cea,5f8d315d4c58831b861cd2ec,8890-cfd9209e-45b5-408f-9eed-f8c5f9c8b840,survey-likert,livetest1,2,ray,False,https://photodraw32.s3.amazonaws.com/n01496331_20865_ray_26.png,95,rating-task,6875.700000004144,96,788342,False,1,True,False,Somewhat,-1,False
5f9a52fbcb9b6476926ee0ff,5d43b4140aa3ad0001e2233a,5f985e85aa47ac11b7d52ffd,5f9a5233425559168b60f9b8,9792-633b02e8-1775-4069-8547-f42c629e9a05,survey-likert,livetest1,2,ray,False,https://photodraw32.s3.amazonaws.com/n01496331_20865_ray_26.png,6,rating-task,23984.0,7,126488,False,0,True,False,Very,1,False
5f9796cfc8fc842033c98bc1,5e8bce371e16e90ba6df085d,5f73aa04e06cde127e261a0d,5f97950981778215c5aa665e,3965-3d92d695-56b0-44d2-94f0-4c34d331fefe,survey-likert,livetest1,5,ray,False,https://photodraw32.s3.amazonaws.com/n01496331_20930_ray_27.png,92,rating-task,4521.794999949634,93,443863,False,0,False,False,Extremely,2,False
5f9796e3c8fc842033c98bf0,5865dd647fbbcd00013973b8,5f73aa04e06cde127e261a0d,5f979566d31364162a6b6e63,5310-b022358f-f58b-4db9-9bee-25cbc1e6e836,survey-likert,livetest1,5,ray,False,https://photodraw32.s3.amazonaws.com/n01496331_20930_ray_27.png,67,rating-task,3299.895000000135,68,366022,False,1,False,False,Very,1,False
5f9795a4c8fc842033c989ad,5f2e099917eb9615c9de9102,5f73aa04e06cde127e261a0d,5f9795298e277605c08dc4ed,2858-3293f4f2-2aaa-4b26-b20d-21ce163217ee,survey-likert,livetest1,5,ray,False,https://photodraw32.s3.amazonaws.com/n01496331_20930_ray_27.png,6,rating-task,8277.0,7,108698,False,0,True,False,Extremely,2,False
5f9796d9c8fc842033c98bd9,5a7ce044ae9a0b0001a9a058,5f73aa04e06cde127e261a0d,5f9794ef55867c16f807d10c,7422-dee2f412-5970-498b-a940-b870491698ed,survey-likert,livetest1,5,ray,False,https://photodraw32.s3.amazonaws.com/n01496331_20930_ray_27.png,102,rating-task,3391.5850000921637,103,440532,False,0,False,False,Very,1,False
5f9796e2c8fc842033c98bed,5e7975aa24a196537da503c1,5f73aa04e06cde127e261a0d,5f9794c9054d7c163eda0434,5986-c486e599-e047-4397-a0d8-372f2a55e4b5,survey-likert,livetest1,5,ray,False,https://photodraw32.s3.amazonaws.com/n01496331_20930_ray_27.png,131,rating-task,3740.3400000184774,132,523425,False,0,False,False,Extremely,2,False
5f97961fc8fc842033c98a7c,5ec7bb4467b0da23311bd127,5f73aa04e06cde127e261a0d,5f97955fd3134d16540be7b5,7718-cba673bd-f034-45e3-bcd2-2c899d6cc810,survey-likert,livetest1,5,ray,False,https://photodraw32.s3.amazonaws.com/n01496331_20930_ray_27.png,14,rating-task,6398.534999927506,15,185616,False,1,True,False,Very,1,False
5f979784c8fc842033c98d05,5d87df4202971700016068c8,5f73aa04e06cde127e261a0d,5f9795799e5cb2161ca6c8a5,8201-4168394d-7d3d-4561-99e3-e831f1c1e4a4,survey-likert,livetest1,5,ray,False,https://photodraw32.s3.amazonaws.com/n01496331_20930_ray_27.png,23,rating-task,4458.119999966584,24,516128,False,0,False,False,Extremely,2,False
5f9796fec8fc842033c98c2b,5ba85a9d032d360001b83177,5f73aa04e06cde127e261a0d,5f97956e0bfb3716737da19f,3503-bda5e9f8-6ce2-4372-98c2-4876a2bbd53c,survey-likert,livetest1,5,ray,False,https://photodraw32.s3.amazonaws.com/n01496331_20930_ray_27.png,47,rating-task,3390.60499984771,48,385983,False,2,False,False,Extremely,2,False
5f9797eac8fc842033c98d80,5e793ab51aff8103623757be,5f73aa04e06cde127e261a0d,5f9795053dc52216397c6536,7745-cbd298c7-5a60-4d4b-96a3-f181f7b1683f,survey-likert,livetest1,5,ray,False,https://photodraw32.s3.amazonaws.com/n01496331_20930_ray_27.png,52,rating-task,12960.199999997742,53,659156,False,1,True,False,Moderately,0,False
5f979697c8fc842033c98b55,55848744fdf99b574f55ada0,5f73aa04e06cde127e261a0d,5f97955b864a6416528bc74b,8958-ff3eefe2-7275-44ca-ae14-ef544ba77e6f,survey-likert,livetest1,5,ray,False,https://photodraw32.s3.amazonaws.com/n01496331_20930_ray_27.png,38,rating-task,4307.17999999976,39,308086,False,1,True,False,Very,1,False
5f8d3374d8c3f934f77b94de,5baa1f618e137f00016264c9,5f73a9f564ee5911fdac5cea,5f8d316b18ada64db01b44e3,4867-b3cacf4c-4a99-45f5-a60d-1f8c167ff196,survey-likert,livetest1,2,ray,False,https://photodraw32.s3.amazonaws.com/n01496331_21049_ray_28.png,81,rating-task,5908.240000004298,82,515347,False,2,True,False,Very,1,False
5f9a5424cb9b6476926ee134,5d43b4140aa3ad0001e2233a,5f985e85aa47ac11b7d52ffd,5f9a5233425559168b60f9b8,9792-633b02e8-1775-4069-8547-f42c629e9a05,survey-likert,livetest1,2,ray,False,https://photodraw32.s3.amazonaws.com/n01496331_21049_ray_28.png,38,rating-task,3529.0,39,424141,False,0,True,False,Moderately,0,False
5f8d320ad8c3f934f77b92a0,5e3b89b17afaad3a6ef5f11f,5f73a9f564ee5911fdac5cea,5f8d317e299b290153c1f511,0928-da665bce-f165-4db3-bac0-402206ac4967,survey-likert,livetest1,2,ray,False,https://photodraw32.s3.amazonaws.com/n01496331_21049_ray_28.png,10,rating-task,8021.880000014789,11,131868,False,2,False,False,Not At All,-2,False
5f8d33a4d8c3f934f77b9533,5cbcd05c56524100013b19c0,5f73a9f564ee5911fdac5cea,5f8d31569d47214d94b00c04,0165-27b8d1ba-11f6-4b20-a674-7de566afd61e,survey-likert,livetest1,2,ray,False,https://photodraw32.s3.amazonaws.com/n01496331_21049_ray_28.png,90,rating-task,3453.0500000109896,91,547827,False,0,False,False,Very,1,False
5f8d33cfd8c3f934f77b9585,5ebaa4e2baddc6000aec5616,5f73a9f564ee5911fdac5cea,5f8d31768d187d1ba3166480,6632-60e9a010-d083-4034-ab02-cb438cbe2a78,survey-likert,livetest1,2,ray,False,https://photodraw32.s3.amazonaws.com/n01496331_21049_ray_28.png,134,rating-task,3198.225000000093,135,595012,False,0,False,False,Very,1,False
5f9a55eccb9b6476926ee1c5,5efc4a86816bde0116bebb3b,5f985e85aa47ac11b7d52ffd,5f9a527d135e38163198880e,6100-72abe12e-0674-4767-9a1e-842bbb461cb9,survey-likert,livetest1,2,ray,False,https://photodraw32.s3.amazonaws.com/n01496331_21049_ray_28.png,51,rating-task,12980.670000077225,52,785867,False,2,False,False,Extremely,2,False
5f8d3381d8c3f934f77b94f3,5eb7ace91de6e86e9a6053d2,5f73a9f564ee5911fdac5cea,5f8d315d4c58831b861cd2ec,8890-cfd9209e-45b5-408f-9eed-f8c5f9c8b840,survey-likert,livetest1,2,ray,False,https://photodraw32.s3.amazonaws.com/n01496331_21049_ray_28.png,44,rating-task,6038.300000000163,45,533489,False,1,True,False,Moderately,0,False
5f8d4237d8c3f934f77b97c7,5efb5648d7ea0e08aa5d1179,5f73a9f564ee5911fdac5cea,5f8d407f2a240a000adb921d,7636-1245bb50-afd4-4f74-86aa-371af258b5b2,survey-likert,livetest1,2,ray,False,https://photodraw32.s3.amazonaws.com/n01496331_21049_ray_28.png,87,rating-task,4457.479999982752,88,423356,False,0,False,False,Extremely,2,False
5f9a5741cb9b6476926ee241,5a06f5d038ed430001be74d2,5f985e85aa47ac11b7d52ffd,5f9a52751c037916f6e4e5bc,0984-7a1134b2-9b01-46e3-ae99-c5edf681efcb,survey-likert,livetest1,2,ray,False,https://photodraw32.s3.amazonaws.com/n01496331_21049_ray_28.png,109,rating-task,10530.20000003744,110,1119226,False,0,True,False,Not At All,-2,False
5f8d34c1d8c3f934f77b9660,5f68710379c5f04c830d41ea,5f73a9f564ee5911fdac5cea,5f8d316421cb9c4e472cbbc3,8762-de015f57-0189-48ba-b1d1-171227264ac1,survey-likert,livetest1,2,ray,False,https://photodraw32.s3.amazonaws.com/n01496331_21049_ray_28.png,99,rating-task,6628.365000011399,100,845543,False,2,False,False,Somewhat,-1,False
5f8d1884d8c3f934f77b8a1d,5ed5e2fb557bda179a9c4771,5f8bcec9c124133094fa762a,5f8d16622773904beda3dfac,4431-6e99e6b5-e893-4d44-99d3-fd067ea3963d,survey-likert,livetest1,0,ray,False,https://photodraw32.s3.amazonaws.com/n01496331_21710_ray_29.png,109,rating-task,3596.4549999916926,110,538285,False,1,True,False,Extremely,2,False
5f8d1963d8c3f934f77b8b2a,5dddb60c2e6c77d38d91b629,5f8bcec9c124133094fa762a,5f8d162032be124bceadbd82,1693-84798827-e303-4ce3-be7c-094f5d7a1601,survey-likert,livetest1,0,ray,False,https://photodraw32.s3.amazonaws.com/n01496331_21710_ray_29.png,120,rating-task,3992.47000000102,121,774832,False,2,True,False,Very,1,False
5f8d1a58d8c3f934f77b8bb9,5d7264522c3db400018b45d2,5f8bcec9c124133094fa762a,5f8d1630dc953c4b983e52a3,1683-e2a9e3ee-43fe-4ec8-b56b-54964bb63126,survey-likert,livetest1,0,ray,False,https://photodraw32.s3.amazonaws.com/n01496331_21710_ray_29.png,65,rating-task,21183.364999480546,66,937256,False,0,False,False,Somewhat,-1,False
5f8d1735d8c3f934f77b87e2,5ba99d0938803d000127271b,5f8bcec9c124133094fa762a,5f8d169caa633e18d8b80e80,7155-3b0b1684-682d-4919-96b1-fb30998b34a9,survey-likert,livetest1,0,ray,False,https://photodraw32.s3.amazonaws.com/n01496331_21710_ray_29.png,9,rating-task,5654.085000001942,10,130465,False,0,False,False,Very,1,False
5f8d1757d8c3f934f77b8812,5f8c95e221cb9c417e388164,5f8bcec9c124133094fa762a,5f8d1679df08304c26a88191,0448-390186f2-51b9-4948-af4f-4b6162b57dec,survey-likert,livetest1,0,ray,False,https://photodraw32.s3.amazonaws.com/n01496331_21710_ray_29.png,26,rating-task,3449.7600000177044,27,208286,False,0,True,False,Moderately,0,False
5f8d1806d8c3f934f77b8937,5e5cea95421691000f6f6ecb,5f8bcec9c124133094fa762a,5f8d16761c978f4c35337af9,6506-03177d0d-45b1-4df4-9abd-c55e7442bfe8,survey-likert,livetest1,0,ray,False,https://photodraw32.s3.amazonaws.com/n01496331_21710_ray_29.png,91,rating-task,3087.0,92,392536,False,1,True,False,Very,1,False
5f8d184fd8c3f934f77b89bc,5dcd4c51b0649701be29751f,5f8bcec9c124133094fa762a,5f8d16376eb0bb19cb9ba812,7190-53003a2f-9a5e-4f9d-8dc6-a1b3077d9c93,survey-likert,livetest1,0,ray,False,https://photodraw32.s3.amazonaws.com/n01496331_21710_ray_29.png,40,rating-task,4090.45000000007,41,531393,False,0,False,False,Extremely,2,False
5f8d167ad8c3f934f77b8748,5ec95c138fd0f04674b98bff,5f8bcec9c124133094fa762a,5f8d161053f93d1940e03675,1732-1ce711ca-b216-4dc4-9795-e13e7289b996,survey-likert,livetest1,0,ray,False,https://photodraw32.s3.amazonaws.com/n01496331_21710_ray_29.png,2,rating-task,4880.199999999604,3,86256,False,0,False,False,Extremely,2,False
5f8d1c46d8c3f934f77b8c67,5e65b6a855bf353377c62535,5f8bcec9c124133094fa762a,5f8d16889bfdeb4c296f6dda,5357-ff785c5f-f370-4f62-98e6-7324e51cffb9,survey-likert,livetest1,0,ray,False,https://photodraw32.s3.amazonaws.com/n01496331_21710_ray_29.png,114,rating-task,5175.989999959711,115,1465913,False,0,False,False,Very,1,False
5f8d1c21d8c3f934f77b8c59,5f6c13cbbe3c5918dfadc2ab,5f8bcec9c124133094fa762a,5f8d16994564e84bdb68631c,8616-a0f5c4d5-1d9d-4b3a-9528-91b52232fe83,survey-likert,livetest1,0,ray,False,https://photodraw32.s3.amazonaws.com/n01496331_21710_ray_29.png,107,rating-task,5886.534999999683,108,1396591,False,0,False,False,Very,1,False
5f97a577c8fc842033c9910b,5f0bb62dae235800080f0ca5,5f73aa19f0594c1238562b79,5f97a371864a6416fdd40281,6235-3145d799-d6b8-45fd-b763-b0ccb50dcb09,survey-likert,livetest1,6,ray,False,https://photodraw32.s3.amazonaws.com/n01496331_21942_ray_30.png,58,rating-task,4576.860000000161,59,500063,False,0,True,False,Extremely,2,False
5f97a400c8fc842033c98ed0,5f32f54c15e4800c286919fd,5f73aa19f0594c1238562b79,5f97a37e6f009d174d4609d9,4579-a2d25955-8dde-4dd5-a979-4041ebe40b41,survey-likert,livetest1,6,ray,False,https://photodraw32.s3.amazonaws.com/n01496331_21942_ray_30.png,5,rating-task,9746.0,6,112736,False,0,True,False,Extremely,2,False
5f97a968c8fc842033c993fd,5724cd9e386f1b0013e8c7ae,5f73aa19f0594c1238562b79,5f97a4000d924206ff7f0616,5123-4756707b-cd9d-4266-aab0-9bbf430bb688,survey-likert,livetest1,6,ray,False,https://photodraw32.s3.amazonaws.com/n01496331_21942_ray_30.png,94,rating-task,7221.47000000393,95,1356919,False,0,True,False,Very,1,False
5f97a501c8fc842033c99034,5d4c872e14ffaf00175055e6,5f73aa19f0594c1238562b79,5f97a3cc588a4d1714768d2d,1172-e382efaf-68ce-4c16-9890-ea8baacdf29c,survey-likert,livetest1,6,ray,False,https://photodraw32.s3.amazonaws.com/n01496331_21942_ray_30.png,33,rating-task,4948.300000018207,34,300641,False,0,False,False,Very,1,False
5f97a5f0c8fc842033c991fd,5f22ea5ece2fd801e81079b9,5f73aa19f0594c1238562b79,5f97a3992c032d07f141b427,7643-e363f40f-f163-4c88-8af4-4afa86e1825c,survey-likert,livetest1,6,ray,False,https://photodraw32.s3.amazonaws.com/n01496331_21942_ray_30.png,88,rating-task,4581.850000075065,89,593669,False,2,False,False,Very,1,False
5f9a6bb8cb9b6476926ee4d1,59a9954d5ea0f300012814b1,5f985f36bcbfb211ad52b259,5f9a6b1fb201641724b28063,1354-1b51b267-4171-4d09-8571-31d080997d63,survey-likert,livetest1,6,ray,False,https://photodraw32.s3.amazonaws.com/n01496331_21942_ray_30.png,11,rating-task,7611.930000013672,12,140609,False,0,False,False,Extremely,2,False
5f97a584c8fc842033c99129,5f78f4b754feeb4f19043859,5f73aa19f0594c1238562b79,5f97a403e1691c1744b45105,3939-7135620e-8795-4006-893b-28b2e4966333,survey-likert,livetest1,6,ray,False,https://photodraw32.s3.amazonaws.com/n01496331_21942_ray_30.png,44,rating-task,4315.975000034086,45,378279,False,1,True,False,Extremely,2,False
5f97a43ec8fc842033c98f01,5f7b9be5174225193560d2bb,5f73aa19f0594c1238562b79,5f97a40cc35c1a17692ed8b2,1949-595d1cd3-9718-4dc6-b733-290c70e00f5f,survey-likert,livetest1,6,ray,False,https://photodraw32.s3.amazonaws.com/n01496331_21942_ray_30.png,0,rating-task,9701.0,1,42696,False,0,False,False,Somewhat,-1,False
5f97a49bc8fc842033c98f8b,5d316c4442c2170018e10574,5f73aa19f0594c1238562b79,5f97a3c5a8165a1742d1b5c2,5572-9ca1f63b-73ce-466d-964e-f6514c38b7df,survey-likert,livetest1,6,ray,False,https://photodraw32.s3.amazonaws.com/n01496331_21942_ray_30.png,20,rating-task,3717.0,21,146086,False,0,False,False,Very,1,False
5f97a482c8fc842033c98f64,5f8607af207244126d2310da,5f73aa19f0594c1238562b79,5f97a378d31364172613138b,0969-f2ddb69b-ce8d-4f42-b209-5368f23b356b,survey-likert,livetest1,6,ray,False,https://photodraw32.s3.amazonaws.com/n01496331_21942_ray_30.png,28,rating-task,3851.0,29,236361,False,0,False,False,Very,1,False
5f8d2523d8c3f934f77b8eab,5dcc0cb819ca038a0dd058ab,5f73a9ebfb8b2f119c0f5054,5f8d237f04936c4ca21e1b2a,1802-66937a7f-ba7e-42cc-8a79-9c0a7eefa27b,survey-likert,livetest1,1,ray,False,https://photodraw32.s3.amazonaws.com/n01496331_22355_ray_31.png,59,rating-task,7777.935000000056,60,402078,False,1,False,False,Extremely,2,False
5f9b0fabcb9b6476926ee84f,5dd86baf3c870a812198ce1e,5f9b0c77d54fa92d0e547997,5f9b0d1e0d134c2c3c33c1aa,0046-1daf45a3-d13a-4d15-972b-7133fce194d3,survey-likert,livetest1,1,ray,False,https://photodraw32.s3.amazonaws.com/n01496331_22355_ray_31.png,71,rating-task,4527.750000008382,72,645456,False,1,True,False,Extremely,2,False
5f8d2561d8c3f934f77b8f24,5de6fa0b45971068368dd887,5f73a9ebfb8b2f119c0f5054,5f8d238c56536a4ca68aa9ad,9472-fdd661ba-52fe-4ccc-b543-c96f58629607,survey-likert,livetest1,1,ray,False,https://photodraw32.s3.amazonaws.com/n01496331_22355_ray_31.png,103,rating-task,3360.960000019986,104,465857,False,0,False,False,Extremely,2,False
5f8d248cd8c3f934f77b8db2,5f6b83589ffe6809f2cacb07,5f73a9ebfb8b2f119c0f5054,5f8d238920327d4c5c5008e8,2236-a43b6cc2-1946-4302-9413-d184c96bea26,survey-likert,livetest1,1,ray,False,https://photodraw32.s3.amazonaws.com/n01496331_22355_ray_31.png,15,rating-task,3116.619999986142,16,251693,False,2,True,False,Extremely,2,False
5f8d24afd8c3f934f77b8df0,5c9e61148766170001efc8a3,5f73a9ebfb8b2f119c0f5054,5f8d233ead39c84c605bffe7,6584-5d586faa-ded5-4824-bd20-c261f876acfe,survey-likert,livetest1,1,ray,False,https://photodraw32.s3.amazonaws.com/n01496331_22355_ray_31.png,34,rating-task,7870.070000004489,35,360889,False,2,False,False,Very,1,False
5f8d2597d8c3f934f77b8f8f,5f51e7c33457c443748e637b,5f73a9ebfb8b2f119c0f5054,5f8d2377ff9be44c8559a0e3,8317-06d237f4-365b-4899-905e-ad7f32a82003,survey-likert,livetest1,1,ray,False,https://photodraw32.s3.amazonaws.com/n01496331_22355_ray_31.png,92,rating-task,3643.9899999531917,93,519424,False,0,False,False,Extremely,2,False
5f9a4fbacb9b6476926ee03a,5bbbf217a83521000173d9df,5f985d541531871159c45f03,5f9a4d274c537216449559c6,4061-824322c3-b6cf-4f11-b938-ccdcdcd792fd,survey-likert,livetest1,1,ray,False,https://photodraw32.s3.amazonaws.com/n01496331_22355_ray_31.png,89,rating-task,3203.544999996666,90,639205,False,2,False,False,Extremely,2,False
5f8d2b3ed8c3f934f77b923c,545cb6f1fdf99b119d8b18bc,5f73a9ebfb8b2f119c0f5054,5f8d23883d5b494cf477ff3c,0968-28cedc9c-b27e-4159-bbf3-967f0e618092,survey-likert,livetest1,1,ray,False,https://photodraw32.s3.amazonaws.com/n01496331_22355_ray_31.png,126,rating-task,3915.1399999973364,127,1946620,False,2,False,False,Extremely,2,False
5f8d2657d8c3f934f77b90d3,5ec4db33f264da3c38dfce22,5f73a9ebfb8b2f119c0f5054,5f8d233a30af563963c4d8d8,2327-ce1678b4-ad6d-42c0-a529-49b4998d2ee9,survey-likert,livetest1,1,ray,False,https://photodraw32.s3.amazonaws.com/n01496331_22355_ray_31.png,109,rating-task,5252.740000003483,110,792178,False,1,False,False,Extremely,2,False
5f9a4ec7cb9b6476926edfae,5e7cd3b170dd7532f7177264,5f985d541531871159c45f03,5f9a4d4afd920a15b7c96e8d,5261-293923e7-9582-4a2c-9921-157209ba0481,survey-likert,livetest1,1,ray,False,https://photodraw32.s3.amazonaws.com/n01496331_22355_ray_31.png,33,rating-task,5139.629999990575,34,371639,False,1,False,False,Very,1,False
5f97b3bfc8fc842033c997a3,5f72614089bf93198154a8ff,5f73aac1bc553412199221af,5f97b19f94e3be186643273c,1144-8c7ca652-5630-437e-b5c9-aa42e24c27de,survey-likert,livetest1,7,ray,False,https://photodraw32.s3.amazonaws.com/n01496331_2367_ray_03.png,87,rating-task,5812.0,88,514030,False,0,False,False,Very,1,False
5f97b380c8fc842033c99714,5eb3966158efe7182e31ff92,5f73aac1bc553412199221af,5f97b0d63b654418114ada6d,8809-86c17652-332f-426b-bc71-1f318d6bb400,survey-likert,livetest1,7,ray,False,https://photodraw32.s3.amazonaws.com/n01496331_2367_ray_03.png,70,rating-task,5926.270000054501,71,676817,False,1,False,False,Somewhat,-1,False
5f97b349c8fc842033c9969f,5e5dcd26d196fd0ebd020397,5f73aac1bc553412199221af,5f97b1d50a505c1815e46c64,6967-adafc700-9398-40a2-a5a4-f5812bfaab84,survey-likert,livetest1,7,ray,False,https://photodraw32.s3.amazonaws.com/n01496331_2367_ray_03.png,46,rating-task,7186.224999997648,47,364580,False,2,False,False,Very,1,False
5f97b43cc8fc842033c99882,5b71d485a539a50001280147,5f73aac1bc553412199221af,5f97b1399f0a251816f12dcf,1545-f451a063-72a9-48bc-81b0-96347e5d5c31,survey-likert,livetest1,7,ray,False,https://photodraw32.s3.amazonaws.com/n01496331_2367_ray_03.png,95,rating-task,4992.215000005672,96,763765,False,0,False,False,Not At All,-2,False
5f97b277c8fc842033c99504,5d561653194649001adc083f,5f73aac1bc553412199221af,5f97b1bf2c032d08449b1529,7597-ea02da82-1d80-4013-853a-553de10e0cb2,survey-likert,livetest1,7,ray,False,https://photodraw32.s3.amazonaws.com/n01496331_2367_ray_03.png,20,rating-task,5252.0,21,159935,False,0,False,False,Somewhat,-1,False
5f97b3a0c8fc842033c9975e,5f73edee7379c903c056edfb,5f73aac1bc553412199221af,5f97b22131cb4717ab8360b5,5535-6ff0103c-31d7-401c-a01a-c482a3147c0f,survey-likert,livetest1,7,ray,False,https://photodraw32.s3.amazonaws.com/n01496331_2367_ray_03.png,85,rating-task,3876.639999987674,86,377247,False,0,False,False,Moderately,0,False
5f9a7693cb9b6476926ee64b,5e6d0c990eef222d60ec8cd7,5f985f3ad2170e114114fd3f,5f9a728200cdf117d14d838a,3909-f384f2d3-12c2-46c8-9a76-f4fdb3d75480,survey-likert,livetest1,7,ray,False,https://photodraw32.s3.amazonaws.com/n01496331_2367_ray_03.png,111,rating-task,44129.45999996737,112,1021599,False,0,True,False,Moderately,0,False
5f97b284c8fc842033c9951e,5e3b67fcd61d8738c69aeb0d,5f73aac1bc553412199221af,5f97b14f0788e5174439472b,5240-0572b45d-d442-49d4-83cc-2e6425754f2f,survey-likert,livetest1,7,ray,False,https://photodraw32.s3.amazonaws.com/n01496331_2367_ray_03.png,4,rating-task,9678.260000073351,5,152230,False,0,False,False,Not At All,-2,False
5f97b1a1c8fc842033c99442,5e145ce811d879a7799c8e89,5f73aac1bc553412199221af,5f97b10d19e194180257b242,8295-e893e64a-aecc-4e5e-bd5e-5d9e23bd3f2d,survey-likert,livetest1,7,ray,False,https://photodraw32.s3.amazonaws.com/n01496331_2367_ray_03.png,11,rating-task,5409.69000000041,12,133145,False,2,False,False,Very,1,False
5f9a73e2cb9b6476926ee599,5a572480acc75b00017a1882,5f985f3ad2170e114114fd3f,5f9a727c8171241740f44d51,6676-668b6a66-f8ba-40a9-9806-e7dee37f8bc4,survey-likert,livetest1,7,ray,False,https://photodraw32.s3.amazonaws.com/n01496331_2367_ray_03.png,55,rating-task,4486.750000040047,56,349167,False,0,True,False,Very,1,False
5f8d1c5dd8c3f934f77b8c6d,5e65b6a855bf353377c62535,5f8bcec9c124133094fa762a,5f8d16889bfdeb4c296f6dda,5357-ff785c5f-f370-4f62-98e6-7324e51cffb9,survey-likert,livetest1,0,ray,False,https://photodraw32.s3.amazonaws.com/n01496331_5102_ray_06.png,119,rating-task,5066.960000025574,120,1488377,False,0,False,False,Moderately,0,False
5f8d19abd8c3f934f77b8b5c,5d7264522c3db400018b45d2,5f8bcec9c124133094fa762a,5f8d1630dc953c4b983e52a3,1683-e2a9e3ee-43fe-4ec8-b56b-54964bb63126,survey-likert,livetest1,0,ray,False,https://photodraw32.s3.amazonaws.com/n01496331_5102_ray_06.png,49,rating-task,8699.699999764562,50,764271,False,0,False,False,Somewhat,-1,False
5f8d19fcd8c3f934f77b8b89,5f6c13cbbe3c5918dfadc2ab,5f8bcec9c124133094fa762a,5f8d16994564e84bdb68631c,8616-a0f5c4d5-1d9d-4b3a-9528-91b52232fe83,survey-likert,livetest1,0,ray,False,https://photodraw32.s3.amazonaws.com/n01496331_5102_ray_06.png,74,rating-task,8784.390000000712,75,847704,False,0,False,False,Very,1,False
5f8d18a4d8c3f934f77b8a55,5ed5e2fb557bda179a9c4771,5f8bcec9c124133094fa762a,5f8d16622773904beda3dfac,4431-6e99e6b5-e893-4d44-99d3-fd067ea3963d,survey-likert,livetest1,0,ray,False,https://photodraw32.s3.amazonaws.com/n01496331_5102_ray_06.png,118,rating-task,3464.3450000003213,119,569672,False,1,True,False,Very,1,False
5f8d1a16d8c3f934f77b8b94,5dcd4c51b0649701be29751f,5f8bcec9c124133094fa762a,5f8d16376eb0bb19cb9ba812,7190-53003a2f-9a5e-4f9d-8dc6-a1b3077d9c93,survey-likert,livetest1,0,ray,False,https://photodraw32.s3.amazonaws.com/n01496331_5102_ray_06.png,123,rating-task,6536.154999999795,124,986586,False,0,False,False,Very,1,False
5f8d17dfd8c3f934f77b88f2,5ec95c138fd0f04674b98bff,5f8bcec9c124133094fa762a,5f8d161053f93d1940e03675,1732-1ce711ca-b216-4dc4-9795-e13e7289b996,survey-likert,livetest1,0,ray,False,https://photodraw32.s3.amazonaws.com/n01496331_5102_ray_06.png,78,rating-task,4153.800000000047,79,442730,False,0,False,False,Extremely,2,False
5f8d1873d8c3f934f77b89fc,5ba99d0938803d000127271b,5f8bcec9c124133094fa762a,5f8d169caa633e18d8b80e80,7155-3b0b1684-682d-4919-96b1-fb30998b34a9,survey-likert,livetest1,0,ray,False,https://photodraw32.s3.amazonaws.com/n01496331_5102_ray_06.png,75,rating-task,6724.054999998771,76,448921,False,0,False,False,Somewhat,-1,False
5f8d17f5d8c3f934f77b8919,5e5cea95421691000f6f6ecb,5f8bcec9c124133094fa762a,5f8d16761c978f4c35337af9,6506-03177d0d-45b1-4df4-9abd-c55e7442bfe8,survey-likert,livetest1,0,ray,False,https://photodraw32.s3.amazonaws.com/n01496331_5102_ray_06.png,86,rating-task,3208.0,87,375614,False,1,True,False,Very,1,False
5f8d1745d8c3f934f77b87f9,5f8c95e221cb9c417e388164,5f8bcec9c124133094fa762a,5f8d1679df08304c26a88191,0448-390186f2-51b9-4948-af4f-4b6162b57dec,survey-likert,livetest1,0,ray,False,https://photodraw32.s3.amazonaws.com/n01496331_5102_ray_06.png,22,rating-task,5767.514999984996,23,189858,False,0,True,False,Very,1,False
5f8d1973d8c3f934f77b8b34,5dddb60c2e6c77d38d91b629,5f8bcec9c124133094fa762a,5f8d162032be124bceadbd82,1693-84798827-e303-4ce3-be7c-094f5d7a1601,survey-likert,livetest1,0,ray,False,https://photodraw32.s3.amazonaws.com/n01496331_5102_ray_06.png,122,rating-task,9673.595000000205,123,789997,False,2,True,False,Moderately,0,False
5f9a5c23cb9b6476926ee2fd,5e1088684a2ad475d62a5de8,5f985e88def616122233c8bb,5f9a5a1f724e3e16f5400277,3558-d5fed8d6-e5f6-4593-8884-86b1c363b8aa,survey-likert,livetest1,3,ray,False,https://photodraw32.s3.amazonaws.com/n01496331_6511_ray_07.png,99,rating-task,2951.0,100,479976,False,2,False,False,Moderately,0,False
5f976360c8fc842033c9805c,5c97e7136825d900019b9fb8,5f73a9fb9df4fe129333e6d3,5f97610f7cd03e126ee0558e,4578-01e9cdec-d7ff-4b66-829d-4be0fcf063be,survey-likert,livetest1,3,ray,False,https://photodraw32.s3.amazonaws.com/n01496331_6511_ray_07.png,98,rating-task,5028.0,99,482744,False,1,False,False,Somewhat,-1,False
5f97647ac8fc842033c981b5,5bf735ba2e42ef00019f6f73,5f73a9fb9df4fe129333e6d3,5f976116e3bab812a1cb2781,6747-293e10a2-33c6-43f7-a60e-6d902034c241,survey-likert,livetest1,3,ray,False,https://photodraw32.s3.amazonaws.com/n01496331_6511_ray_07.png,78,rating-task,18964.649999979883,79,855736,False,3,False,False,Moderately,0,False
5f9763ddc8fc842033c9811a,5c0a7febe570940001a2cbe2,5f73a9fb9df4fe129333e6d3,5f97611b8112f611dbcbbb1a,8951-7a917fc3-f496-4465-b816-1299e64071f3,survey-likert,livetest1,3,ray,False,https://photodraw32.s3.amazonaws.com/n01496331_6511_ray_07.png,10,rating-task,3883.599999942817,11,126343,False,1,True,False,Very,1,False
5f976284c8fc842033c97edd,5f0ced4a75cfd41b82bf28d2,5f73a9fb9df4fe129333e6d3,5f9760e8069a2511bfca56ba,7741-0262f78c-2285-48a3-ab00-eff4514a0152,survey-likert,livetest1,3,ray,False,https://photodraw32.s3.amazonaws.com/n01496331_6511_ray_07.png,61,rating-task,6417.790000000445,62,406125,False,0,False,False,Very,1,False
5f976342c8fc842033c98029,5a2420437413810001521dd6,5f73a9fb9df4fe129333e6d3,5f976118f0dac3120ceb21db,7296-bf3baa1b-9b2b-4d1e-bed2-11ed949f461c,survey-likert,livetest1,3,ray,False,https://photodraw32.s3.amazonaws.com/n01496331_6511_ray_07.png,83,rating-task,3935.0449999328703,84,536266,False,0,False,False,Moderately,0,False
5f9762bec8fc842033c97f35,5f5b7d92b4ff9509d17aa5a6,5f73a9fb9df4fe129333e6d3,5f976126bcd533125235b88d,3570-c22700f0-eef6-4c19-be2f-2d656b668be5,survey-likert,livetest1,3,ray,False,https://photodraw32.s3.amazonaws.com/n01496331_6511_ray_07.png,2,rating-task,3021.3199999998324,3,110888,False,0,True,False,Extremely,2,False
5f9762a1c8fc842033c97f06,5f7b241d63e1da06afec1b30,5f73a9fb9df4fe129333e6d3,5f97615655867c12ac8aac8d,1788-04d6ee5f-f884-4e53-9452-8367598c62cc,survey-likert,livetest1,3,ray,False,https://photodraw32.s3.amazonaws.com/n01496331_6511_ray_07.png,47,rating-task,4895.0250000925735,48,326089,False,1,True,False,Very,1,False
5f9772fbc8fc842033c982e5,5e8251f790b06509688a8f90,5f73a9fb9df4fe129333e6d3,5f9761346990711164f5fe29,0388-530ffc75-c1e8-4443-a65b-d179ce913cfe,survey-likert,livetest1,3,ray,False,https://photodraw32.s3.amazonaws.com/n01496331_6511_ray_07.png,27,rating-task,5752.719999989495,28,326881,False,1,False,False,Not At All,-2,False
5f977547c8fc842033c9837f,5c2d3ba4731cd10001b647d7,5f73a9fb9df4fe129333e6d3,5f97711d63ceb303f79f4107,1725-c4f1154e-3494-4c56-b4d8-260edb1317e6,survey-likert,livetest1,3,ray,False,https://photodraw32.s3.amazonaws.com/n01496331_6511_ray_07.png,50,rating-task,4468.314999947324,51,1062807,False,0,False,False,Somewhat,-1,False
5f9795bac8fc842033c989ca,5a7ce044ae9a0b0001a9a058,5f73aa04e06cde127e261a0d,5f9794ef55867c16f807d10c,7422-dee2f412-5970-498b-a940-b870491698ed,survey-likert,livetest1,5,ray,False,https://photodraw32.s3.amazonaws.com/n01496331_7238_ray_09.png,25,rating-task,4187.785000074655,26,153781,False,0,False,False,Somewhat,-1,False
5f9795d8c8fc842033c989f6,55848744fdf99b574f55ada0,5f73aa04e06cde127e261a0d,5f97955b864a6416528bc74b,8958-ff3eefe2-7275-44ca-ae14-ef544ba77e6f,survey-likert,livetest1,5,ray,False,https://photodraw32.s3.amazonaws.com/n01496331_7238_ray_09.png,1,rating-task,14015.550000000076,2,117003,False,1,True,False,Somewhat,-1,False
5f97965fc8fc842033c98afc,5e7975aa24a196537da503c1,5f73aa04e06cde127e261a0d,5f9794c9054d7c163eda0434,5986-c486e599-e047-4397-a0d8-372f2a55e4b5,survey-likert,livetest1,5,ray,False,https://photodraw32.s3.amazonaws.com/n01496331_7238_ray_09.png,94,rating-task,4876.760000013746,95,392544,False,0,False,False,Somewhat,-1,False
5f979613c8fc842033c98a60,5865dd647fbbcd00013973b8,5f73aa04e06cde127e261a0d,5f979566d31364162a6b6e63,5310-b022358f-f58b-4db9-9bee-25cbc1e6e836,survey-likert,livetest1,5,ray,False,https://photodraw32.s3.amazonaws.com/n01496331_7238_ray_09.png,17,rating-task,4028.159999999858,18,157236,False,1,False,False,Somewhat,-1,False
5f97972ec8fc842033c98c83,5d87df4202971700016068c8,5f73aa04e06cde127e261a0d,5f9795799e5cb2161ca6c8a5,8201-4168394d-7d3d-4561-99e3-e831f1c1e4a4,survey-likert,livetest1,5,ray,False,https://photodraw32.s3.amazonaws.com/n01496331_7238_ray_09.png,14,rating-task,4305.220000096597,15,429984,False,0,False,False,Moderately,0,False
5f9796c0c8fc842033c98ba1,5f2e099917eb9615c9de9102,5f73aa04e06cde127e261a0d,5f9795298e277605c08dc4ed,2858-3293f4f2-2aaa-4b26-b20d-21ce163217ee,survey-likert,livetest1,5,ray,False,https://photodraw32.s3.amazonaws.com/n01496331_7238_ray_09.png,83,rating-task,4136.0,84,392985,False,0,True,False,Somewhat,-1,False
5f979733c8fc842033c98c90,5ec7bb4467b0da23311bd127,5f73aa04e06cde127e261a0d,5f97955fd3134d16540be7b5,7718-cba673bd-f034-45e3-bcd2-2c899d6cc810,survey-likert,livetest1,5,ray,False,https://photodraw32.s3.amazonaws.com/n01496331_7238_ray_09.png,57,rating-task,8552.469999995083,58,461977,False,1,True,False,Somewhat,-1,False
5f9796bdc8fc842033c98b9b,5e8bce371e16e90ba6df085d,5f73aa04e06cde127e261a0d,5f97950981778215c5aa665e,3965-3d92d695-56b0-44d2-94f0-4c34d331fefe,survey-likert,livetest1,5,ray,False,https://photodraw32.s3.amazonaws.com/n01496331_7238_ray_09.png,87,rating-task,3086.145000066608,88,426352,False,0,False,False,Not At All,-2,False
5f9797f5c8fc842033c98d8a,5e793ab51aff8103623757be,5f73aa04e06cde127e261a0d,5f9795053dc52216397c6536,7745-cbd298c7-5a60-4d4b-96a3-f181f7b1683f,survey-likert,livetest1,5,ray,False,https://photodraw32.s3.amazonaws.com/n01496331_7238_ray_09.png,54,rating-task,5874.974999998813,55,669869,False,1,True,False,Not At All,-2,False
5f97976cc8fc842033c98ce9,5ba85a9d032d360001b83177,5f73aa04e06cde127e261a0d,5f97956e0bfb3716737da19f,3503-bda5e9f8-6ce2-4372-98c2-4876a2bbd53c,survey-likert,livetest1,5,ray,False,https://photodraw32.s3.amazonaws.com/n01496331_7238_ray_09.png,67,rating-task,5478.160000406206,68,496776,False,2,False,False,Very,1,False
5f979619c8fc842033c98a6d,5f2e099917eb9615c9de9102,5f73aa04e06cde127e261a0d,5f9795298e277605c08dc4ed,2858-3293f4f2-2aaa-4b26-b20d-21ce163217ee,survey-likert,livetest1,5,ray,False,https://photodraw32.s3.amazonaws.com/n01496331_8205_ray_10.png,37,rating-task,2922.0,38,225469,False,0,True,False,Moderately,0,False
5f9795e4c8fc842033c98a0c,5865dd647fbbcd00013973b8,5f73aa04e06cde127e261a0d,5f979566d31364162a6b6e63,5310-b022358f-f58b-4db9-9bee-25cbc1e6e836,survey-likert,livetest1,5,ray,False,https://photodraw32.s3.amazonaws.com/n01496331_8205_ray_10.png,5,rating-task,6558.129999999437,6,110592,False,1,False,False,Moderately,0,False
5f9798fdc8fc842033c98e5c,5d87df4202971700016068c8,5f73aa04e06cde127e261a0d,5f9795799e5cb2161ca6c8a5,8201-4168394d-7d3d-4561-99e3-e831f1c1e4a4,survey-likert,livetest1,5,ray,False,https://photodraw32.s3.amazonaws.com/n01496331_8205_ray_10.png,88,rating-task,2851.314999978058,89,893950,False,0,False,False,Very,1,False
5f979781c8fc842033c98d03,55848744fdf99b574f55ada0,5f73aa04e06cde127e261a0d,5f97955b864a6416528bc74b,8958-ff3eefe2-7275-44ca-ae14-ef544ba77e6f,survey-likert,livetest1,5,ray,False,https://photodraw32.s3.amazonaws.com/n01496331_8205_ray_10.png,87,rating-task,3425.0449999999255,88,541763,False,1,True,False,Extremely,2,False
5f979523c8fc842033c98954,5e7975aa24a196537da503c1,5f73aa04e06cde127e261a0d,5f9794c9054d7c163eda0434,5986-c486e599-e047-4397-a0d8-372f2a55e4b5,survey-likert,livetest1,5,ray,False,https://photodraw32.s3.amazonaws.com/n01496331_8205_ray_10.png,6,rating-task,3124.3849999736995,7,76273,False,0,False,False,Extremely,2,False
5f97963dc8fc842033c98ab6,5a7ce044ae9a0b0001a9a058,5f73aa04e06cde127e261a0d,5f9794ef55867c16f807d10c,7422-dee2f412-5970-498b-a940-b870491698ed,survey-likert,livetest1,5,ray,False,https://photodraw32.s3.amazonaws.com/n01496331_8205_ray_10.png,60,rating-task,3758.4350000834092,61,284093,False,0,False,False,Very,1,False
5f9796f9c8fc842033c98c20,5e8bce371e16e90ba6df085d,5f73aa04e06cde127e261a0d,5f97950981778215c5aa665e,3965-3d92d695-56b0-44d2-94f0-4c34d331fefe,survey-likert,livetest1,5,ray,False,https://photodraw32.s3.amazonaws.com/n01496331_8205_ray_10.png,105,rating-task,3300.245000049472,106,486830,False,0,False,False,Moderately,0,False
5f97983bc8fc842033c98ddf,5ba85a9d032d360001b83177,5f73aa04e06cde127e261a0d,5f97956e0bfb3716737da19f,3503-bda5e9f8-6ce2-4372-98c2-4876a2bbd53c,survey-likert,livetest1,5,ray,False,https://photodraw32.s3.amazonaws.com/n01496331_8205_ray_10.png,124,rating-task,3685.8249995857477,125,703554,False,2,False,False,Very,1,False
5f979704c8fc842033c98c37,5ec7bb4467b0da23311bd127,5f73aa04e06cde127e261a0d,5f97955fd3134d16540be7b5,7718-cba673bd-f034-45e3-bcd2-2c899d6cc810,survey-likert,livetest1,5,ray,False,https://photodraw32.s3.amazonaws.com/n01496331_8205_ray_10.png,51,rating-task,2772.38999994006,52,414639,False,1,True,False,Extremely,2,False
5f979656c8fc842033c98aec,5e793ab51aff8103623757be,5f73aa04e06cde127e261a0d,5f9795053dc52216397c6536,7745-cbd298c7-5a60-4d4b-96a3-f181f7b1683f,survey-likert,livetest1,5,ray,False,https://photodraw32.s3.amazonaws.com/n01496331_8205_ray_10.png,28,rating-task,5734.710000000661,29,255072,False,1,True,False,Moderately,0,False
5f8d1815d8c3f934f77b8954,5dcd4c51b0649701be29751f,5f8bcec9c124133094fa762a,5f8d16376eb0bb19cb9ba812,7190-53003a2f-9a5e-4f9d-8dc6-a1b3077d9c93,survey-likert,livetest1,0,ray,False,https://photodraw32.s3.amazonaws.com/n01498041_10279_ray_13.png,30,rating-task,8074.030000000203,31,473402,False,0,False,False,Very,1,False
5f8d17f1d8c3f934f77b8913,5e5cea95421691000f6f6ecb,5f8bcec9c124133094fa762a,5f8d16761c978f4c35337af9,6506-03177d0d-45b1-4df4-9abd-c55e7442bfe8,survey-likert,livetest1,0,ray,False,https://photodraw32.s3.amazonaws.com/n01498041_10279_ray_13.png,85,rating-task,3351.0,86,372403,False,1,True,False,Very,1,False
5f8d19c2d8c3f934f77b8b6a,5d7264522c3db400018b45d2,5f8bcec9c124133094fa762a,5f8d1630dc953c4b983e52a3,1683-e2a9e3ee-43fe-4ec8-b56b-54964bb63126,survey-likert,livetest1,0,ray,False,https://photodraw32.s3.amazonaws.com/n01498041_10279_ray_13.png,51,rating-task,14426.760000176728,52,786922,False,0,False,False,Somewhat,-1,False
5f8d1828d8c3f934f77b8979,5dddb60c2e6c77d38d91b629,5f8bcec9c124133094fa762a,5f8d162032be124bceadbd82,1693-84798827-e303-4ce3-be7c-094f5d7a1601,survey-likert,livetest1,0,ray,False,https://photodraw32.s3.amazonaws.com/n01498041_10279_ray_13.png,63,rating-task,5195.690000000526,64,459496,False,2,True,False,Very,1,False
5f8d1a99d8c3f934f77b8bd6,5e65b6a855bf353377c62535,5f8bcec9c124133094fa762a,5f8d16889bfdeb4c296f6dda,5357-ff785c5f-f370-4f62-98e6-7324e51cffb9,survey-likert,livetest1,0,ray,False,https://photodraw32.s3.amazonaws.com/n01498041_10279_ray_13.png,38,rating-task,3938.190000015311,39,1036457,False,0,False,False,Very,1,False
5f8d17d2d8c3f934f77b88dc,5ec95c138fd0f04674b98bff,5f8bcec9c124133094fa762a,5f8d161053f93d1940e03675,1732-1ce711ca-b216-4dc4-9795-e13e7289b996,survey-likert,livetest1,0,ray,False,https://photodraw32.s3.amazonaws.com/n01498041_10279_ray_13.png,75,rating-task,4842.499999998836,76,429664,False,0,False,False,Moderately,0,False
5f8d17b5d8c3f934f77b88ab,5ed5e2fb557bda179a9c4771,5f8bcec9c124133094fa762a,5f8d16622773904beda3dfac,4431-6e99e6b5-e893-4d44-99d3-fd067ea3963d,survey-likert,livetest1,0,ray,False,https://photodraw32.s3.amazonaws.com/n01498041_10279_ray_13.png,52,rating-task,3733.359999998356,53,331350,False,1,True,False,Extremely,2,False
5f8d1828d8c3f934f77b8978,5f8c95e221cb9c417e388164,5f8bcec9c124133094fa762a,5f8d1679df08304c26a88191,0448-390186f2-51b9-4948-af4f-4b6162b57dec,survey-likert,livetest1,0,ray,False,https://photodraw32.s3.amazonaws.com/n01498041_10279_ray_13.png,73,rating-task,4405.859999998938,74,417015,False,0,True,False,Very,1,False
5f8d1cacd8c3f934f77b8c8d,5f6c13cbbe3c5918dfadc2ab,5f8bcec9c124133094fa762a,5f8d16994564e84bdb68631c,8616-a0f5c4d5-1d9d-4b3a-9528-91b52232fe83,survey-likert,livetest1,0,ray,False,https://photodraw32.s3.amazonaws.com/n01498041_10279_ray_13.png,120,rating-task,6748.535000000615,121,1535330,False,0,False,False,Moderately,0,False
5f8d1755d8c3f934f77b8810,5ba99d0938803d000127271b,5f8bcec9c124133094fa762a,5f8d169caa633e18d8b80e80,7155-3b0b1684-682d-4919-96b1-fb30998b34a9,survey-likert,livetest1,0,ray,False,https://photodraw32.s3.amazonaws.com/n01498041_10279_ray_13.png,14,rating-task,6395.745000001625,15,162133,False,0,False,False,Moderately,0,False
5f978580c8fc842033c985c6,5edd552a1d16bda58fe55563,5f73a9ffb9cb9f12192551a7,5f9783d1873236150a0adad7,8818-a6187be9-15a9-4a42-84d1-ff98c548f595,survey-likert,livetest1,4,ray,False,https://photodraw32.s3.amazonaws.com/n01498041_10581_ray_14.png,67,rating-task,3340.8049999852665,68,421295,False,0,False,False,Somewhat,-1,False
5f97849ec8fc842033c9844b,5f1198f77195c80293793402,5f73a9ffb9cb9f12192551a7,5f97838fa3ef981562350835,6262-3e4cb2df-221a-4216-8050-d5d9d817c75d,survey-likert,livetest1,4,ray,False,https://photodraw32.s3.amazonaws.com/n01498041_10581_ray_14.png,22,rating-task,5120.000000000029,23,188243,False,1,True,False,Very,1,False
5f9a63f3cb9b6476926ee449,5e9b8d6577f86e0a261075a1,5f985efdfbd89110b8d71b9a,5f9a5ea24358ae168b376305,7438-f27695f8-9a23-46ff-a05d-96a5b17212a1,survey-likert,livetest1,4,ray,False,https://photodraw32.s3.amazonaws.com/n01498041_10581_ray_14.png,26,rating-task,155564.12999983877,27,1349464,False,2,True,False,Very,1,False
5f9a81a1cb9b6476926ee737,5ec3ebf2339052081ebf3178,5f9a78aec4733c18df2d5222,5f9a7eeb0a5b3319a4c68c55,1572-1d7f64e5-ff50-439c-8671-a181462cbc32,survey-likert,livetest1,4,ray,False,https://photodraw32.s3.amazonaws.com/n01498041_10581_ray_14.png,69,rating-task,3521.519999951124,70,686926,False,0,False,False,Extremely,2,False
5f9a606dcb9b6476926ee38c,5ee38a6c0bc82d01daa410f8,5f985efdfbd89110b8d71b9a,5f9a5e782613ea16e16a71e5,3808-acb39714-1db9-4e6d-abbe-bff002c558e2,survey-likert,livetest1,4,ray,False,https://photodraw32.s3.amazonaws.com/n01498041_10581_ray_14.png,88,rating-task,3246.0,89,488647,False,0,False,False,Very,1,False
5f978467c8fc842033c9840d,5e63dd2fba8c57000c16eb11,5f73a9ffb9cb9f12192551a7,5f9783a15da60415af45c683,7125-4d164f54-f007-49e6-ba98-6ef0c7c1773f,survey-likert,livetest1,4,ray,False,https://photodraw32.s3.amazonaws.com/n01498041_10581_ray_14.png,8,rating-task,3928.5650000092573,9,190670,False,0,False,False,Very,1,False
5f978673c8fc842033c987a3,5ea171c1a8782801263e7540,5f73a9ffb9cb9f12192551a7,5f9783eae48ab015a8d2ae43,3415-d06d6695-bfb4-43f0-b595-24f9ccd1f780,survey-likert,livetest1,4,ray,False,https://photodraw32.s3.amazonaws.com/n01498041_10581_ray_14.png,124,rating-task,3802.625000011176,125,644176,False,1,False,False,Somewhat,-1,False
5f978593c8fc842033c985eb,5ee222b0470fa72a18c1cc02,5f73a9ffb9cb9f12192551a7,5f97842da30548156461aabd,1695-0a496672-4eb0-4869-8217-799b9b2149f6,survey-likert,livetest1,4,ray,False,https://photodraw32.s3.amazonaws.com/n01498041_10581_ray_14.png,9,rating-task,6029.739999910817,10,347110,False,0,True,False,Somewhat,-1,False
5f9786fbc8fc842033c9885e,5d55bd344ec7fa000168f311,5f73a9ffb9cb9f12192551a7,5f9783ddce960e15a1b52984,6962-0197ff6c-57a0-414e-9892-c5a21ee97f9c,survey-likert,livetest1,4,ray,False,https://photodraw32.s3.amazonaws.com/n01498041_10581_ray_14.png,106,rating-task,5653.355000002193,107,784555,False,1,False,False,Somewhat,-1,False
5f9786f8c8fc842033c9885a,5f568eb26157950e3b0a6db6,5f73a9ffb9cb9f12192551a7,5f9783e7a30548156461aabb,3165-f5e9002e-85a0-49ab-9dcd-9769d49592b4,survey-likert,livetest1,4,ray,False,https://photodraw32.s3.amazonaws.com/n01498041_10581_ray_14.png,115,rating-task,4961.390000003972,116,771931,False,1,False,False,Somewhat,-1,False
5f97626ec8fc842033c97ebb,5f0ced4a75cfd41b82bf28d2,5f73a9fb9df4fe129333e6d3,5f9760e8069a2511bfca56ba,7741-0262f78c-2285-48a3-ab00-eff4514a0152,survey-likert,livetest1,3,ray,False,https://photodraw32.s3.amazonaws.com/n01498041_10595_ray_15.png,55,rating-task,3016.1400000006543,56,384207,False,0,False,False,Very,1,False
5f97625ec8fc842033c97ea3,5f7b241d63e1da06afec1b30,5f73a9fb9df4fe129333e6d3,5f97615655867c12ac8aac8d,1788-04d6ee5f-f884-4e53-9452-8367598c62cc,survey-likert,livetest1,3,ray,False,https://photodraw32.s3.amazonaws.com/n01498041_10595_ray_15.png,31,rating-task,4401.470000040717,32,259007,False,1,True,False,Very,1,False
5f9762bac8fc842033c97f2d,5c97e7136825d900019b9fb8,5f73a9fb9df4fe129333e6d3,5f97610f7cd03e126ee0558e,4578-01e9cdec-d7ff-4b66-829d-4be0fcf063be,survey-likert,livetest1,3,ray,False,https://photodraw32.s3.amazonaws.com/n01498041_10595_ray_15.png,59,rating-task,3966.0,60,316474,False,1,False,False,Very,1,False
5f977300c8fc842033c982e6,5e8251f790b06509688a8f90,5f73a9fb9df4fe129333e6d3,5f9761346990711164f5fe29,0388-530ffc75-c1e8-4443-a65b-d179ce913cfe,survey-likert,livetest1,3,ray,False,https://photodraw32.s3.amazonaws.com/n01498041_10595_ray_15.png,28,rating-task,4371.444999997504,29,331256,False,1,False,False,Extremely,2,False
5f9a5b9bcb9b6476926ee2db,5e1088684a2ad475d62a5de8,5f985e88def616122233c8bb,5f9a5a1f724e3e16f5400277,3558-d5fed8d6-e5f6-4593-8884-86b1c363b8aa,survey-likert,livetest1,3,ray,False,https://photodraw32.s3.amazonaws.com/n01498041_10595_ray_15.png,65,rating-task,3524.0,66,343337,False,2,False,False,Very,1,False
5f977858c8fc842033c983d7,5c2d3ba4731cd10001b647d7,5f73a9fb9df4fe129333e6d3,5f97711d63ceb303f79f4107,1725-c4f1154e-3494-4c56-b4d8-260edb1317e6,survey-likert,livetest1,3,ray,False,https://photodraw32.s3.amazonaws.com/n01498041_10595_ray_15.png,130,rating-task,2872.1499999519438,131,1847711,False,0,False,False,Very,1,False
5f976400c8fc842033c9814d,5a2420437413810001521dd6,5f73a9fb9df4fe129333e6d3,5f976118f0dac3120ceb21db,7296-bf3baa1b-9b2b-4d1e-bed2-11ed949f461c,survey-likert,livetest1,3,ray,False,https://photodraw32.s3.amazonaws.com/n01498041_10595_ray_15.png,117,rating-task,3649.4950000196695,118,725647,False,0,False,False,Very,1,False
5f976408c8fc842033c98156,5f5b7d92b4ff9509d17aa5a6,5f73a9fb9df4fe129333e6d3,5f976126bcd533125235b88d,3570-c22700f0-eef6-4c19-be2f-2d656b668be5,survey-likert,livetest1,3,ray,False,https://photodraw32.s3.amazonaws.com/n01498041_10595_ray_15.png,78,rating-task,3991.364999965299,79,441030,False,0,True,False,Extremely,2,False
5f9764f4c8fc842033c981fa,5bf735ba2e42ef00019f6f73,5f73a9fb9df4fe129333e6d3,5f976116e3bab812a1cb2781,6747-293e10a2-33c6-43f7-a60e-6d902034c241,survey-likert,livetest1,3,ray,False,https://photodraw32.s3.amazonaws.com/n01498041_10595_ray_15.png,95,rating-task,5750.119999982417,96,977387,False,3,False,False,Moderately,0,False
5f976664c8fc842033c9829a,5c0a7febe570940001a2cbe2,5f73a9fb9df4fe129333e6d3,5f97611b8112f611dbcbbb1a,8951-7a917fc3-f496-4465-b816-1299e64071f3,survey-likert,livetest1,3,ray,False,https://photodraw32.s3.amazonaws.com/n01498041_10595_ray_15.png,94,rating-task,3277.3999999044463,95,773703,False,1,True,False,Very,1,False
5f979801c8fc842033c98d97,5e793ab51aff8103623757be,5f73aa04e06cde127e261a0d,5f9795053dc52216397c6536,7745-cbd298c7-5a60-4d4b-96a3-f181f7b1683f,survey-likert,livetest1,5,ray,False,https://photodraw32.s3.amazonaws.com/n01498041_10604_ray_16.png,57,rating-task,3925.3650000027847,58,681626,False,1,True,False,Extremely,2,False
5f979735c8fc842033c98c94,5865dd647fbbcd00013973b8,5f73aa04e06cde127e261a0d,5f979566d31364162a6b6e63,5310-b022358f-f58b-4db9-9bee-25cbc1e6e836,survey-likert,livetest1,5,ray,False,https://photodraw32.s3.amazonaws.com/n01498041_10604_ray_16.png,90,rating-task,2530.509999999602,91,447281,False,1,False,False,Very,1,False
5f979571c8fc842033c9897b,5e8bce371e16e90ba6df085d,5f73aa04e06cde127e261a0d,5f97950981778215c5aa665e,3965-3d92d695-56b0-44d2-94f0-4c34d331fefe,survey-likert,livetest1,5,ray,False,https://photodraw32.s3.amazonaws.com/n01498041_10604_ray_16.png,9,rating-task,3960.2299999678507,10,94134,False,0,False,False,Very,1,False
5f9796cfc8fc842033c98bc2,5e7975aa24a196537da503c1,5f73aa04e06cde127e261a0d,5f9794c9054d7c163eda0434,5986-c486e599-e047-4397-a0d8-372f2a55e4b5,survey-likert,livetest1,5,ray,False,https://photodraw32.s3.amazonaws.com/n01498041_10604_ray_16.png,125,rating-task,4084.584999945946,126,503800,False,0,False,False,Extremely,2,False
5f9795d4c8fc842033c989ed,5f2e099917eb9615c9de9102,5f73aa04e06cde127e261a0d,5f9795298e277605c08dc4ed,2858-3293f4f2-2aaa-4b26-b20d-21ce163217ee,survey-likert,livetest1,5,ray,False,https://photodraw32.s3.amazonaws.com/n01498041_10604_ray_16.png,18,rating-task,3498.0,19,156460,False,0,True,False,Somewhat,-1,False
5f979557c8fc842033c98968,5a7ce044ae9a0b0001a9a058,5f73aa04e06cde127e261a0d,5f9794ef55867c16f807d10c,7422-dee2f412-5970-498b-a940-b870491698ed,survey-likert,livetest1,5,ray,False,https://photodraw32.s3.amazonaws.com/n01498041_10604_ray_16.png,2,rating-task,5600.055000046268,3,54270,False,0,False,False,Moderately,0,False
5f979701c8fc842033c98c30,5ec7bb4467b0da23311bd127,5f73aa04e06cde127e261a0d,5f97955fd3134d16540be7b5,7718-cba673bd-f034-45e3-bcd2-2c899d6cc810,survey-likert,livetest1,5,ray,False,https://photodraw32.s3.amazonaws.com/n01498041_10604_ray_16.png,50,rating-task,3994.620000012219,51,411865,False,1,True,False,Extremely,2,False
5f97968ac8fc842033c98b42,55848744fdf99b574f55ada0,5f73aa04e06cde127e261a0d,5f97955b864a6416528bc74b,8958-ff3eefe2-7275-44ca-ae14-ef544ba77e6f,survey-likert,livetest1,5,ray,False,https://photodraw32.s3.amazonaws.com/n01498041_10604_ray_16.png,35,rating-task,4721.820000000647,36,294810,False,1,True,False,Very,1,False
5f97989ac8fc842033c98e2a,5d87df4202971700016068c8,5f73aa04e06cde127e261a0d,5f9795799e5cb2161ca6c8a5,8201-4168394d-7d3d-4561-99e3-e831f1c1e4a4,survey-likert,livetest1,5,ray,False,https://photodraw32.s3.amazonaws.com/n01498041_10604_ray_16.png,71,rating-task,3730.7749999454245,72,794808,False,0,False,False,Very,1,False
5f979850c8fc842033c98df8,5ba85a9d032d360001b83177,5f73aa04e06cde127e261a0d,5f97956e0bfb3716737da19f,3503-bda5e9f8-6ce2-4372-98c2-4876a2bbd53c,survey-likert,livetest1,5,ray,False,https://photodraw32.s3.amazonaws.com/n01498041_10604_ray_16.png,131,rating-task,2894.0300000831485,132,724897,False,2,False,False,Extremely,2,False
5f97a6bdc8fc842033c9935f,5f0bb62dae235800080f0ca5,5f73aa19f0594c1238562b79,5f97a371864a6416fdd40281,6235-3145d799-d6b8-45fd-b763-b0ccb50dcb09,survey-likert,livetest1,6,ray,False,https://photodraw32.s3.amazonaws.com/n01498041_11366_ray_18.png,123,rating-task,3695.610000000219,124,826013,False,0,True,False,Extremely,2,False
5f97a4fbc8fc842033c99027,5f8607af207244126d2310da,5f73aa19f0594c1238562b79,5f97a378d31364172613138b,0969-f2ddb69b-ce8d-4f42-b209-5368f23b356b,survey-likert,livetest1,6,ray,False,https://photodraw32.s3.amazonaws.com/n01498041_11366_ray_18.png,46,rating-task,4577.0,47,357055,False,0,False,False,Extremely,2,False
5f97a638c8fc842033c9928f,5d4c872e14ffaf00175055e6,5f73aa19f0594c1238562b79,5f97a3cc588a4d1714768d2d,1172-e382efaf-68ce-4c16-9890-ea8baacdf29c,survey-likert,livetest1,6,ray,False,https://photodraw32.s3.amazonaws.com/n01498041_11366_ray_18.png,86,rating-task,4974.900000001071,87,611648,False,0,False,False,Extremely,2,False
5f97a55ac8fc842033c990d7,5f7b9be5174225193560d2bb,5f73aa19f0594c1238562b79,5f97a40cc35c1a17692ed8b2,1949-595d1cd3-9718-4dc6-b733-290c70e00f5f,survey-likert,livetest1,6,ray,False,https://photodraw32.s3.amazonaws.com/n01498041_11366_ray_18.png,70,rating-task,3089.0,71,326697,False,0,False,False,Very,1,False
5f97a65fc8fc842033c992e4,5724cd9e386f1b0013e8c7ae,5f73aa19f0594c1238562b79,5f97a4000d924206ff7f0616,5123-4756707b-cd9d-4266-aab0-9bbf430bb688,survey-likert,livetest1,6,ray,False,https://photodraw32.s3.amazonaws.com/n01498041_11366_ray_18.png,26,rating-task,3288.585000002058,27,579809,False,0,True,False,Very,1,False
5f97a540c8fc842033c990a9,5f32f54c15e4800c286919fd,5f73aa19f0594c1238562b79,5f97a37e6f009d174d4609d9,4579-a2d25955-8dde-4dd5-a979-4041ebe40b41,survey-likert,livetest1,6,ray,False,https://photodraw32.s3.amazonaws.com/n01498041_11366_ray_18.png,58,rating-task,6157.0,59,432360,False,0,True,False,Extremely,2,False
5f97a5fcc8fc842033c99217,5d316c4442c2170018e10574,5f73aa19f0594c1238562b79,5f97a3c5a8165a1742d1b5c2,5572-9ca1f63b-73ce-466d-964e-f6514c38b7df,survey-likert,livetest1,6,ray,False,https://photodraw32.s3.amazonaws.com/n01498041_11366_ray_18.png,102,rating-task,4238.0,103,498854,False,0,False,False,Very,1,False
5f9a6da0cb9b6476926ee53d,59a9954d5ea0f300012814b1,5f985f36bcbfb211ad52b259,5f9a6b1fb201641724b28063,1354-1b51b267-4171-4d09-8571-31d080997d63,survey-likert,livetest1,6,ray,False,https://photodraw32.s3.amazonaws.com/n01498041_11366_ray_18.png,119,rating-task,3956.7800000077114,120,628657,False,0,False,False,Very,1,False
5f97a683c8fc842033c99322,5f78f4b754feeb4f19043859,5f73aa19f0594c1238562b79,5f97a403e1691c1744b45105,3939-7135620e-8795-4006-893b-28b2e4966333,survey-likert,livetest1,6,ray,False,https://photodraw32.s3.amazonaws.com/n01498041_11366_ray_18.png,97,rating-task,5190.975000034086,98,633153,False,1,True,False,Extremely,2,False
5f97a518c8fc842033c9905b,5f22ea5ece2fd801e81079b9,5f73aa19f0594c1238562b79,5f97a3992c032d07f141b427,7643-e363f40f-f163-4c88-8af4-4afa86e1825c,survey-likert,livetest1,6,ray,False,https://photodraw32.s3.amazonaws.com/n01498041_11366_ray_18.png,47,rating-task,4181.890000007115,48,377407,False,2,False,False,Very,1,False
5f9b0fe8cb9b6476926ee857,5dd86baf3c870a812198ce1e,5f9b0c77d54fa92d0e547997,5f9b0d1e0d134c2c3c33c1aa,0046-1daf45a3-d13a-4d15-972b-7133fce194d3,survey-likert,livetest1,1,ray,False,https://photodraw32.s3.amazonaws.com/n01498041_12427_ray_21.png,79,rating-task,7016.929999925196,80,706873,False,1,True,False,Extremely,2,False
5f9a4feecb9b6476926ee053,5e7cd3b170dd7532f7177264,5f985d541531871159c45f03,5f9a4d4afd920a15b7c96e8d,5261-293923e7-9582-4a2c-9921-157209ba0481,survey-likert,livetest1,1,ray,False,https://photodraw32.s3.amazonaws.com/n01498041_12427_ray_21.png,83,rating-task,6900.250000006054,84,666536,False,1,False,False,Extremely,2,False
5f8d2464d8c3f934f77b8d6d,5dcc0cb819ca038a0dd058ab,5f73a9ebfb8b2f119c0f5054,5f8d237f04936c4ca21e1b2a,1802-66937a7f-ba7e-42cc-8a79-9c0a7eefa27b,survey-likert,livetest1,1,ray,False,https://photodraw32.s3.amazonaws.com/n01498041_12427_ray_21.png,25,rating-task,4615.149999999645,26,210739,False,1,False,False,Extremely,2,False
5f8d259ad8c3f934f77b8f95,5f51e7c33457c443748e637b,5f73a9ebfb8b2f119c0f5054,5f8d2377ff9be44c8559a0e3,8317-06d237f4-365b-4899-905e-ad7f32a82003,survey-likert,livetest1,1,ray,False,https://photodraw32.s3.amazonaws.com/n01498041_12427_ray_21.png,93,rating-task,2978.9350000210106,94,522409,False,0,False,False,Very,1,False
5f8d2582d8c3f934f77b8f65,5ec4db33f264da3c38dfce22,5f73a9ebfb8b2f119c0f5054,5f8d233a30af563963c4d8d8,2327-ce1678b4-ad6d-42c0-a529-49b4998d2ee9,survey-likert,livetest1,1,ray,False,https://photodraw32.s3.amazonaws.com/n01498041_12427_ray_21.png,58,rating-task,5615.7749999983935,59,578832,False,1,False,False,Extremely,2,False
5f8d2a1bd8c3f934f77b9212,545cb6f1fdf99b119d8b18bc,5f73a9ebfb8b2f119c0f5054,5f8d23883d5b494cf477ff3c,0968-28cedc9c-b27e-4159-bbf3-967f0e618092,survey-likert,livetest1,1,ray,False,https://photodraw32.s3.amazonaws.com/n01498041_12427_ray_21.png,84,rating-task,5196.544999998994,85,1655355,False,2,False,False,Very,1,False
5f8d2405d8c3f934f77b8cf5,5de6fa0b45971068368dd887,5f73a9ebfb8b2f119c0f5054,5f8d238c56536a4ca68aa9ad,9472-fdd661ba-52fe-4ccc-b543-c96f58629607,survey-likert,livetest1,1,ray,False,https://photodraw32.s3.amazonaws.com/n01498041_12427_ray_21.png,22,rating-task,3325.5500000086613,23,117577,False,0,False,False,Very,1,False
5f8d258bd8c3f934f77b8f78,5f6b83589ffe6809f2cacb07,5f73a9ebfb8b2f119c0f5054,5f8d238920327d4c5c5008e8,2236-a43b6cc2-1946-4302-9413-d184c96bea26,survey-likert,livetest1,1,ray,False,https://photodraw32.s3.amazonaws.com/n01498041_12427_ray_21.png,75,rating-task,3063.5850000253413,76,506577,False,2,True,False,Extremely,2,False
5f8d2467d8c3f934f77b8d74,5c9e61148766170001efc8a3,5f73a9ebfb8b2f119c0f5054,5f8d233ead39c84c605bffe7,6584-5d586faa-ded5-4824-bd20-c261f876acfe,survey-likert,livetest1,1,ray,False,https://photodraw32.s3.amazonaws.com/n01498041_12427_ray_21.png,21,rating-task,3909.205000003567,22,289249,False,2,False,False,Somewhat,-1,False
5f9a4e9ecb9b6476926edf9c,5bbbf217a83521000173d9df,5f985d541531871159c45f03,5f9a4d274c537216449559c6,4061-824322c3-b6cf-4f11-b938-ccdcdcd792fd,survey-likert,livetest1,1,ray,False,https://photodraw32.s3.amazonaws.com/n01498041_12427_ray_21.png,40,rating-task,4625.480000002426,41,354633,False,2,False,False,Extremely,2,False
5f9a6bfecb9b6476926ee4e1,59a9954d5ea0f300012814b1,5f985f36bcbfb211ad52b259,5f9a6b1fb201641724b28063,1354-1b51b267-4171-4d09-8571-31d080997d63,survey-likert,livetest1,6,ray,False,https://photodraw32.s3.amazonaws.com/n01498041_12902_ray_22.png,27,rating-task,4172.194999991916,28,210409,False,0,False,False,Very,1,False
5f97a581c8fc842033c99122,5d316c4442c2170018e10574,5f73aa19f0594c1238562b79,5f97a3c5a8165a1742d1b5c2,5572-9ca1f63b-73ce-466d-964e-f6514c38b7df,survey-likert,livetest1,6,ray,False,https://photodraw32.s3.amazonaws.com/n01498041_12902_ray_22.png,71,rating-task,3582.0,72,376618,False,0,False,False,Moderately,0,False
5f97a6d3c8fc842033c99379,5f0bb62dae235800080f0ca5,5f73aa19f0594c1238562b79,5f97a371864a6416fdd40281,6235-3145d799-d6b8-45fd-b763-b0ccb50dcb09,survey-likert,livetest1,6,ray,False,https://photodraw32.s3.amazonaws.com/n01498041_12902_ray_22.png,127,rating-task,9852.024999999674,128,848711,False,0,True,False,Extremely,2,False
5f97aaa4c8fc842033c99417,5724cd9e386f1b0013e8c7ae,5f73aa19f0594c1238562b79,5f97a4000d924206ff7f0616,5123-4756707b-cd9d-4266-aab0-9bbf430bb688,survey-likert,livetest1,6,ray,False,https://photodraw32.s3.amazonaws.com/n01498041_12902_ray_22.png,120,rating-task,5524.140000008745,121,1673408,False,0,True,False,Moderately,0,False
5f97a51bc8fc842033c99063,5f78f4b754feeb4f19043859,5f73aa19f0594c1238562b79,5f97a403e1691c1744b45105,3939-7135620e-8795-4006-893b-28b2e4966333,survey-likert,livetest1,6,ray,False,https://photodraw32.s3.amazonaws.com/n01498041_12902_ray_22.png,22,rating-task,7104.870000039227,23,273339,False,1,True,False,Moderately,0,False
5f97a3dec8fc842033c98ebd,5f32f54c15e4800c286919fd,5f73aa19f0594c1238562b79,5f97a37e6f009d174d4609d9,4579-a2d25955-8dde-4dd5-a979-4041ebe40b41,survey-likert,livetest1,6,ray,False,https://photodraw32.s3.amazonaws.com/n01498041_12902_ray_22.png,0,rating-task,11400.0,1,78190,False,0,True,False,Very,1,False
5f97a4c1c8fc842033c98fc4,5f7b9be5174225193560d2bb,5f73aa19f0594c1238562b79,5f97a40cc35c1a17692ed8b2,1949-595d1cd3-9718-4dc6-b733-290c70e00f5f,survey-likert,livetest1,6,ray,False,https://photodraw32.s3.amazonaws.com/n01498041_12902_ray_22.png,29,rating-task,6142.0,30,173343,False,0,False,False,Moderately,0,False
5f97a641c8fc842033c992a4,5f22ea5ece2fd801e81079b9,5f73aa19f0594c1238562b79,5f97a3992c032d07f141b427,7643-e363f40f-f163-4c88-8af4-4afa86e1825c,survey-likert,livetest1,6,ray,False,https://photodraw32.s3.amazonaws.com/n01498041_12902_ray_22.png,102,rating-task,6665.0949999457225,103,674500,False,2,False,False,Somewhat,-1,False
5f97a628c8fc842033c99271,5d4c872e14ffaf00175055e6,5f73aa19f0594c1238562b79,5f97a3cc588a4d1714768d2d,1172-e382efaf-68ce-4c16-9890-ea8baacdf29c,survey-likert,livetest1,6,ray,False,https://photodraw32.s3.amazonaws.com/n01498041_12902_ray_22.png,83,rating-task,6919.6000000229105,84,595990,False,0,False,False,Very,1,False
5f97a472c8fc842033c98f4b,5f8607af207244126d2310da,5f73aa19f0594c1238562b79,5f97a378d31364172613138b,0969-f2ddb69b-ce8d-4f42-b209-5368f23b356b,survey-likert,livetest1,6,ray,False,https://photodraw32.s3.amazonaws.com/n01498041_12902_ray_22.png,25,rating-task,11528.0,26,220711,False,0,False,False,Very,1,False
5f9786cec8fc842033c98833,5e63dd2fba8c57000c16eb11,5f73a9ffb9cb9f12192551a7,5f9783a15da60415af45c683,7125-4d164f54-f007-49e6-ba98-6ef0c7c1773f,survey-likert,livetest1,4,ray,False,https://photodraw32.s3.amazonaws.com/n01498041_2351_ray_02.png,134,rating-task,2511.5250000089873,135,805320,False,0,False,False,Very,1,False
5f978518c8fc842033c9850c,5d55bd344ec7fa000168f311,5f73a9ffb9cb9f12192551a7,5f9783ddce960e15a1b52984,6962-0197ff6c-57a0-414e-9892-c5a21ee97f9c,survey-likert,livetest1,4,ray,False,https://photodraw32.s3.amazonaws.com/n01498041_2351_ray_02.png,21,rating-task,5644.380000005185,22,300804,False,1,False,False,Extremely,2,False
5f9786e3c8fc842033c9884b,5f568eb26157950e3b0a6db6,5f73a9ffb9cb9f12192551a7,5f9783e7a30548156461aabb,3165-f5e9002e-85a0-49ab-9dcd-9769d49592b4,survey-likert,livetest1,4,ray,False,https://photodraw32.s3.amazonaws.com/n01498041_2351_ray_02.png,111,rating-task,4213.68000000075,112,751275,False,1,False,False,Extremely,2,False
5f978854c8fc842033c98918,5ee222b0470fa72a18c1cc02,5f73a9ffb9cb9f12192551a7,5f97842da30548156461aabd,1695-0a496672-4eb0-4869-8217-799b9b2149f6,survey-likert,livetest1,4,ray,False,https://photodraw32.s3.amazonaws.com/n01498041_2351_ray_02.png,88,rating-task,4549.549999879673,89,1052181,False,0,True,False,Moderately,0,False
5f9784ddc8fc842033c984af,5ea171c1a8782801263e7540,5f73a9ffb9cb9f12192551a7,5f9783eae48ab015a8d2ae43,3415-d06d6695-bfb4-43f0-b595-24f9ccd1f780,survey-likert,livetest1,4,ray,False,https://photodraw32.s3.amazonaws.com/n01498041_2351_ray_02.png,24,rating-task,3587.549999996554,25,238284,False,1,False,False,Moderately,0,False
5f97862ec8fc842033c98712,5f1198f77195c80293793402,5f73a9ffb9cb9f12192551a7,5f97838fa3ef981562350835,6262-3e4cb2df-221a-4216-8050-d5d9d817c75d,survey-likert,livetest1,4,ray,False,https://photodraw32.s3.amazonaws.com/n01498041_2351_ray_02.png,105,rating-task,4412.0,106,587647,False,1,True,False,Very,1,False
5f9a8348cb9b6476926ee777,5ec3ebf2339052081ebf3178,5f9a78aec4733c18df2d5222,5f9a7eeb0a5b3319a4c68c55,1572-1d7f64e5-ff50-439c-8671-a181462cbc32,survey-likert,livetest1,4,ray,False,https://photodraw32.s3.amazonaws.com/n01498041_2351_ray_02.png,133,rating-task,5369.49499999173,134,1109744,False,0,False,False,Very,1,False
5f978671c8fc842033c987a0,5edd552a1d16bda58fe55563,5f73a9ffb9cb9f12192551a7,5f9783d1873236150a0adad7,8818-a6187be9-15a9-4a42-84d1-ff98c548f595,survey-likert,livetest1,4,ray,False,https://photodraw32.s3.amazonaws.com/n01498041_2351_ray_02.png,132,rating-task,3476.4499999873806,133,662471,False,0,False,False,Extremely,2,False
5f9a6049cb9b6476926ee386,5ee38a6c0bc82d01daa410f8,5f985efdfbd89110b8d71b9a,5f9a5e782613ea16e16a71e5,3808-acb39714-1db9-4e6d-abbe-bff002c558e2,survey-likert,livetest1,4,ray,False,https://photodraw32.s3.amazonaws.com/n01498041_2351_ray_02.png,84,rating-task,4109.0,85,453360,False,0,False,False,Very,1,False
5f9a634acb9b6476926ee42a,5e9b8d6577f86e0a261075a1,5f985efdfbd89110b8d71b9a,5f9a5ea24358ae168b376305,7438-f27695f8-9a23-46ff-a05d-96a5b17212a1,survey-likert,livetest1,4,ray,False,https://photodraw32.s3.amazonaws.com/n01498041_2351_ray_02.png,22,rating-task,3356.565000023693,23,1180456,False,2,True,False,Very,1,False
5f8d17bad8c3f934f77b88b1,5ed5e2fb557bda179a9c4771,5f8bcec9c124133094fa762a,5f8d16622773904beda3dfac,4431-6e99e6b5-e893-4d44-99d3-fd067ea3963d,survey-likert,livetest1,0,ray,False,https://photodraw32.s3.amazonaws.com/n01498041_3627_ray_04.png,53,rating-task,4187.345000013011,54,335538,False,1,True,False,Extremely,2,False
5f8d1a20d8c3f934f77b8b98,5d7264522c3db400018b45d2,5f8bcec9c124133094fa762a,5f8d1630dc953c4b983e52a3,1683-e2a9e3ee-43fe-4ec8-b56b-54964bb63126,survey-likert,livetest1,0,ray,False,https://photodraw32.s3.amazonaws.com/n01498041_3627_ray_04.png,59,rating-task,11145.930000580847,60,881157,False,0,False,False,Very,1,False
5f8d19fbd8c3f934f77b8b88,5e65b6a855bf353377c62535,5f8bcec9c124133094fa762a,5f8d16889bfdeb4c296f6dda,5357-ff785c5f-f370-4f62-98e6-7324e51cffb9,survey-likert,livetest1,0,ray,False,https://photodraw32.s3.amazonaws.com/n01498041_3627_ray_04.png,10,rating-task,4945.485000032932,11,878153,False,0,False,False,Very,1,False
5f8d18ddd8c3f934f77b8aab,5f8c95e221cb9c417e388164,5f8bcec9c124133094fa762a,5f8d1679df08304c26a88191,0448-390186f2-51b9-4948-af4f-4b6162b57dec,survey-likert,livetest1,0,ray,False,https://photodraw32.s3.amazonaws.com/n01498041_3627_ray_04.png,116,rating-task,5101.134999975329,117,598045,False,0,True,False,Extremely,2,False
5f8d1858d8c3f934f77b89cb,5e5cea95421691000f6f6ecb,5f8bcec9c124133094fa762a,5f8d16761c978f4c35337af9,6506-03177d0d-45b1-4df4-9abd-c55e7442bfe8,survey-likert,livetest1,0,ray,False,https://photodraw32.s3.amazonaws.com/n01498041_3627_ray_04.png,115,rating-task,2972.0,116,474641,False,1,True,False,Extremely,2,False
5f8d1c7ed8c3f934f77b8c7b,5f6c13cbbe3c5918dfadc2ab,5f8bcec9c124133094fa762a,5f8d16994564e84bdb68631c,8616-a0f5c4d5-1d9d-4b3a-9528-91b52232fe83,survey-likert,livetest1,0,ray,False,https://photodraw32.s3.amazonaws.com/n01498041_3627_ray_04.png,115,rating-task,10022.385000000242,116,1489264,False,0,False,False,Extremely,2,False
5f8d18a3d8c3f934f77b8a54,5ba99d0938803d000127271b,5f8bcec9c124133094fa762a,5f8d169caa633e18d8b80e80,7155-3b0b1684-682d-4919-96b1-fb30998b34a9,survey-likert,livetest1,0,ray,False,https://photodraw32.s3.amazonaws.com/n01498041_3627_ray_04.png,85,rating-task,4102.294999996957,86,496970,False,0,False,False,Extremely,2,False
5f8d1676d8c3f934f77b8747,5ec95c138fd0f04674b98bff,5f8bcec9c124133094fa762a,5f8d161053f93d1940e03675,1732-1ce711ca-b216-4dc4-9795-e13e7289b996,survey-likert,livetest1,0,ray,False,https://photodraw32.s3.amazonaws.com/n01498041_3627_ray_04.png,1,rating-task,6607.5999999993655,2,81369,False,0,False,False,Extremely,2,False
5f8d16f9d8c3f934f77b8797,5dddb60c2e6c77d38d91b629,5f8bcec9c124133094fa762a,5f8d162032be124bceadbd82,1693-84798827-e303-4ce3-be7c-094f5d7a1601,survey-likert,livetest1,0,ray,False,https://photodraw32.s3.amazonaws.com/n01498041_3627_ray_04.png,13,rating-task,6141.2049999999,14,156817,False,2,True,False,Extremely,2,False
5f8d199dd8c3f934f77b8b53,5dcd4c51b0649701be29751f,5f8bcec9c124133094fa762a,5f8d16376eb0bb19cb9ba812,7190-53003a2f-9a5e-4f9d-8dc6-a1b3077d9c93,survey-likert,livetest1,0,ray,False,https://photodraw32.s3.amazonaws.com/n01498041_3627_ray_04.png,100,rating-task,6122.060000000172,101,865351,False,0,False,False,Extremely,2,False
5f9786c9c8fc842033c9882d,5f568eb26157950e3b0a6db6,5f73a9ffb9cb9f12192551a7,5f9783e7a30548156461aabb,3165-f5e9002e-85a0-49ab-9dcd-9769d49592b4,survey-likert,livetest1,4,ray,False,https://photodraw32.s3.amazonaws.com/n01498041_4234_ray_05.png,105,rating-task,5251.925000004121,106,725264,False,1,False,False,Not At All,-2,False
5f9784f0c8fc842033c984cc,5ea171c1a8782801263e7540,5f73a9ffb9cb9f12192551a7,5f9783eae48ab015a8d2ae43,3415-d06d6695-bfb4-43f0-b595-24f9ccd1f780,survey-likert,livetest1,4,ray,False,https://photodraw32.s3.amazonaws.com/n01498041_4234_ray_05.png,29,rating-task,3337.69499999471,30,257557,False,1,False,False,Extremely,2,False
5f97866cc8fc842033c98793,5e63dd2fba8c57000c16eb11,5f73a9ffb9cb9f12192551a7,5f9783a15da60415af45c683,7125-4d164f54-f007-49e6-ba98-6ef0c7c1773f,survey-likert,livetest1,4,ray,False,https://photodraw32.s3.amazonaws.com/n01498041_4234_ray_05.png,109,rating-task,2735.335000004852,110,706894,False,0,False,False,Very,1,False
5f9a80edcb9b6476926ee721,5ec3ebf2339052081ebf3178,5f9a78aec4733c18df2d5222,5f9a7eeb0a5b3319a4c68c55,1572-1d7f64e5-ff50-439c-8671-a181462cbc32,survey-likert,livetest1,4,ray,False,https://photodraw32.s3.amazonaws.com/n01498041_4234_ray_05.png,47,rating-task,5680.560000007972,48,507350,False,0,False,False,Extremely,2,False
5f97844ec8fc842033c983f3,5d55bd344ec7fa000168f311,5f73a9ffb9cb9f12192551a7,5f9783ddce960e15a1b52984,6962-0197ff6c-57a0-414e-9892-c5a21ee97f9c,survey-likert,livetest1,4,ray,False,https://photodraw32.s3.amazonaws.com/n01498041_4234_ray_05.png,1,rating-task,20011.25999999931,2,99404,False,1,False,False,Extremely,2,False
5f9a609dcb9b6476926ee39e,5ee38a6c0bc82d01daa410f8,5f985efdfbd89110b8d71b9a,5f9a5e782613ea16e16a71e5,3808-acb39714-1db9-4e6d-abbe-bff002c558e2,survey-likert,livetest1,4,ray,False,https://photodraw32.s3.amazonaws.com/n01498041_4234_ray_05.png,98,rating-task,7272.0,99,537113,False,0,False,False,Very,1,False
5f9a64e5cb9b6476926ee45f,5e9b8d6577f86e0a261075a1,5f985efdfbd89110b8d71b9a,5f9a5ea24358ae168b376305,7438-f27695f8-9a23-46ff-a05d-96a5b17212a1,survey-likert,livetest1,4,ray,False,https://photodraw32.s3.amazonaws.com/n01498041_4234_ray_05.png,41,rating-task,3940.6300000846386,42,1591312,False,2,True,False,Moderately,0,False
5f978859c8fc842033c9891a,5ee222b0470fa72a18c1cc02,5f73a9ffb9cb9f12192551a7,5f97842da30548156461aabd,1695-0a496672-4eb0-4869-8217-799b9b2149f6,survey-likert,livetest1,4,ray,False,https://photodraw32.s3.amazonaws.com/n01498041_4234_ray_05.png,89,rating-task,5389.484999934211,90,1057573,False,0,True,False,Very,1,False
5f97846bc8fc842033c98412,5edd552a1d16bda58fe55563,5f73a9ffb9cb9f12192551a7,5f9783d1873236150a0adad7,8818-a6187be9-15a9-4a42-84d1-ff98c548f595,survey-likert,livetest1,4,ray,False,https://photodraw32.s3.amazonaws.com/n01498041_4234_ray_05.png,7,rating-task,5203.334999998333,8,144422,False,0,False,False,Very,1,False
5f978631c8fc842033c98718,5f1198f77195c80293793402,5f73a9ffb9cb9f12192551a7,5f97838fa3ef981562350835,6262-3e4cb2df-221a-4216-8050-d5d9d817c75d,survey-likert,livetest1,4,ray,False,https://photodraw32.s3.amazonaws.com/n01498041_4234_ray_05.png,106,rating-task,3082.0,107,590733,False,1,True,False,Very,1,False
5f97656ec8fc842033c98223,5bf735ba2e42ef00019f6f73,5f73a9fb9df4fe129333e6d3,5f976116e3bab812a1cb2781,6747-293e10a2-33c6-43f7-a60e-6d902034c241,survey-likert,livetest1,3,ray,False,https://photodraw32.s3.amazonaws.com/n01498041_7123_ray_08.png,113,rating-task,6279.280000017025,114,1099570,False,3,False,False,Moderately,0,False
5f976270c8fc842033c97ec0,5f7b241d63e1da06afec1b30,5f73a9fb9df4fe129333e6d3,5f97615655867c12ac8aac8d,1788-04d6ee5f-f884-4e53-9452-8367598c62cc,survey-likert,livetest1,3,ray,False,https://photodraw32.s3.amazonaws.com/n01498041_7123_ray_08.png,36,rating-task,3829.2399999918416,37,277232,False,1,True,False,Very,1,False
5f97744ec8fc842033c98337,5e8251f790b06509688a8f90,5f73a9fb9df4fe129333e6d3,5f9761346990711164f5fe29,0388-530ffc75-c1e8-4443-a65b-d179ce913cfe,survey-likert,livetest1,3,ray,False,https://photodraw32.s3.amazonaws.com/n01498041_7123_ray_08.png,84,rating-task,5254.354999983683,85,665135,False,1,False,False,Moderately,0,False
5f9764edc8fc842033c981f6,5f5b7d92b4ff9509d17aa5a6,5f73a9fb9df4fe129333e6d3,5f976126bcd533125235b88d,3570-c22700f0-eef6-4c19-be2f-2d656b668be5,survey-likert,livetest1,3,ray,False,https://photodraw32.s3.amazonaws.com/n01498041_7123_ray_08.png,131,rating-task,2770.959999994375,132,669498,False,0,True,False,Extremely,2,False
5f9765c1c8fc842033c98249,5c0a7febe570940001a2cbe2,5f73a9fb9df4fe129333e6d3,5f97611b8112f611dbcbbb1a,8951-7a917fc3-f496-4465-b816-1299e64071f3,survey-likert,livetest1,3,ray,False,https://photodraw32.s3.amazonaws.com/n01498041_7123_ray_08.png,50,rating-task,2868.3999999193475,51,609947,False,1,True,False,Very,1,False
5f9761d0c8fc842033c97ddc,5c97e7136825d900019b9fb8,5f73a9fb9df4fe129333e6d3,5f97610f7cd03e126ee0558e,4578-01e9cdec-d7ff-4b66-829d-4be0fcf063be,survey-likert,livetest1,3,ray,False,https://photodraw32.s3.amazonaws.com/n01498041_7123_ray_08.png,3,rating-task,8330.0,4,82228,False,1,False,False,Moderately,0,False
5f977593c8fc842033c98394,5c2d3ba4731cd10001b647d7,5f73a9fb9df4fe129333e6d3,5f97711d63ceb303f79f4107,1725-c4f1154e-3494-4c56-b4d8-260edb1317e6,survey-likert,livetest1,3,ray,False,https://photodraw32.s3.amazonaws.com/n01498041_7123_ray_08.png,65,rating-task,3508.430000045337,66,1138531,False,0,False,False,Very,1,False
5f9763e0c8fc842033c98120,5a2420437413810001521dd6,5f73a9fb9df4fe129333e6d3,5f976118f0dac3120ceb21db,7296-bf3baa1b-9b2b-4d1e-bed2-11ed949f461c,survey-likert,livetest1,3,ray,False,https://photodraw32.s3.amazonaws.com/n01498041_7123_ray_08.png,110,rating-task,5763.71999992989,111,693574,False,0,False,False,Extremely,2,False
5f9a5aaacb9b6476926ee2a3,5e1088684a2ad475d62a5de8,5f985e88def616122233c8bb,5f9a5a1f724e3e16f5400277,3558-d5fed8d6-e5f6-4593-8884-86b1c363b8aa,survey-likert,livetest1,3,ray,False,https://photodraw32.s3.amazonaws.com/n01498041_7123_ray_08.png,9,rating-task,6154.0,10,102553,False,2,False,False,Moderately,0,False
5f97636fc8fc842033c98070,5f0ced4a75cfd41b82bf28d2,5f73a9fb9df4fe129333e6d3,5f9760e8069a2511bfca56ba,7741-0262f78c-2285-48a3-ab00-eff4514a0152,survey-likert,livetest1,3,ray,False,https://photodraw32.s3.amazonaws.com/n01498041_7123_ray_08.png,117,rating-task,4619.654999999446,118,640816,False,0,False,False,Extremely,2,False
5f8d3587d8c3f934f77b96cb,5f68710379c5f04c830d41ea,5f73a9f564ee5911fdac5cea,5f8d316421cb9c4e472cbbc3,8762-de015f57-0189-48ba-b1d1-171227264ac1,survey-likert,livetest1,2,ray,False,https://photodraw32.s3.amazonaws.com/n01498041_892_ray_00.png,132,rating-task,5978.6349999922095,133,1043417,False,2,False,False,Very,1,False
5f8d4222d8c3f934f77b97c2,5efb5648d7ea0e08aa5d1179,5f73a9f564ee5911fdac5cea,5f8d407f2a240a000adb921d,7636-1245bb50-afd4-4f74-86aa-371af258b5b2,survey-likert,livetest1,2,ray,False,https://photodraw32.s3.amazonaws.com/n01498041_892_ray_00.png,82,rating-task,4129.495000001043,83,402569,False,0,False,False,Very,1,False
5f9a5390cb9b6476926ee114,5a06f5d038ed430001be74d2,5f985e85aa47ac11b7d52ffd,5f9a52751c037916f6e4e5bc,0984-7a1134b2-9b01-46e3-ae99-c5edf681efcb,survey-likert,livetest1,2,ray,False,https://photodraw32.s3.amazonaws.com/n01498041_892_ray_00.png,3,rating-task,29099.800000025425,4,174199,False,0,True,False,Very,1,False
5f9a5334cb9b6476926ee10e,5d43b4140aa3ad0001e2233a,5f985e85aa47ac11b7d52ffd,5f9a5233425559168b60f9b8,9792-633b02e8-1775-4069-8547-f42c629e9a05,survey-likert,livetest1,2,ray,False,https://photodraw32.s3.amazonaws.com/n01498041_892_ray_00.png,21,rating-task,4376.0,22,183571,False,0,True,False,Somewhat,-1,False
5f8d338ad8c3f934f77b9500,5eb7ace91de6e86e9a6053d2,5f73a9f564ee5911fdac5cea,5f8d315d4c58831b861cd2ec,8890-cfd9209e-45b5-408f-9eed-f8c5f9c8b840,survey-likert,livetest1,2,ray,False,https://photodraw32.s3.amazonaws.com/n01498041_892_ray_00.png,45,rating-task,8880.699999994249,46,542383,False,1,True,False,Somewhat,-1,False
5f8d33e4d8c3f934f77b95ab,5baa1f618e137f00016264c9,5f73a9f564ee5911fdac5cea,5f8d316b18ada64db01b44e3,4867-b3cacf4c-4a99-45f5-a60d-1f8c167ff196,survey-likert,livetest1,2,ray,False,https://photodraw32.s3.amazonaws.com/n01498041_892_ray_00.png,106,rating-task,3318.874999997206,107,627918,False,2,True,False,Extremely,2,False
5f8d327cd8c3f934f77b934d,5ebaa4e2baddc6000aec5616,5f73a9f564ee5911fdac5cea,5f8d31768d187d1ba3166480,6632-60e9a010-d083-4034-ab02-cb438cbe2a78,survey-likert,livetest1,2,ray,False,https://photodraw32.s3.amazonaws.com/n01498041_892_ray_00.png,46,rating-task,2710.755000000063,47,256460,False,0,False,False,Moderately,0,False
5f8d33ded8c3f934f77b95a2,5cbcd05c56524100013b19c0,5f73a9f564ee5911fdac5cea,5f8d31569d47214d94b00c04,0165-27b8d1ba-11f6-4b20-a674-7de566afd61e,survey-likert,livetest1,2,ray,False,https://photodraw32.s3.amazonaws.com/n01498041_892_ray_00.png,105,rating-task,3525.804999982938,106,605999,False,0,False,False,Extremely,2,False
5f8d335ed8c3f934f77b94b7,5e3b89b17afaad3a6ef5f11f,5f73a9f564ee5911fdac5cea,5f8d317e299b290153c1f511,0928-da665bce-f165-4db3-bac0-402206ac4967,survey-likert,livetest1,2,ray,False,https://photodraw32.s3.amazonaws.com/n01498041_892_ray_00.png,92,rating-task,3366.3650000235066,93,471532,False,2,False,False,Very,1,False
5f9a57b2cb9b6476926ee265,5efc4a86816bde0116bebb3b,5f985e85aa47ac11b7d52ffd,5f9a527d135e38163198880e,6100-72abe12e-0674-4767-9a1e-842bbb461cb9,survey-likert,livetest1,2,ray,False,https://photodraw32.s3.amazonaws.com/n01498041_892_ray_00.png,107,rating-task,7530.114999972284,108,1239860,False,2,False,False,Extremely,2,False
5f97b2dfc8fc842033c995ca,5e145ce811d879a7799c8e89,5f73aac1bc553412199221af,5f97b10d19e194180257b242,8295-e893e64a-aecc-4e5e-bd5e-5d9e23bd3f2d,survey-likert,livetest1,7,ray,False,https://photodraw32.s3.amazonaws.com/n01498041_9044_ray_11.png,79,rating-task,4093.3700000168756,80,451570,False,2,False,False,Extremely,2,False
5f97b448c8fc842033c99892,5f72614089bf93198154a8ff,5f73aac1bc553412199221af,5f97b19f94e3be186643273c,1144-8c7ca652-5630-437e-b5c9-aa42e24c27de,survey-likert,livetest1,7,ray,False,https://photodraw32.s3.amazonaws.com/n01498041_9044_ray_11.png,118,rating-task,4137.0,119,650597,False,0,False,False,Extremely,2,False
